Folder: Water/Data/Raman/2018-3-19 - Pesticide/Organized

Note: Data/Raman/2018-3-19 - Pesticide/Organized/0.125_n=1_RamanShift_01.txt
Data from 0.125_n=1_RamanShift_01.txt Node
Date: Mon Mar 19 12:05:19 IST 2018
User: aro
Spectrometer: QEPB0276
Trigger mode: 0
Integration Time (sec): 5.000000E0
Scans to average: 1
Electric dark correction enabled: true
Nonlinearity correction enabled: false
Boxcar width: 0
XAxis mode: Raman Shifts
Number of Pixels in Spectrum: 1044
>>>>>Begin Spectral Data<<<<<
160.701	-3.2
166.742	2.8
172.777	3.8
178.805	16.8
184.826	25.8
190.841	52.8
196.849	81.8
202.85	103.8
208.845	111.8
214.833	116.8
220.815	115.8
226.789	114.8
232.758	115.8
238.719	123.8
244.674	120.8
250.623	119.8
256.565	123.8
262.5	116.8
268.429	122.8
274.351	118.8
280.267	115.8
286.176	118.8
292.079	122.8
297.975	124.8
303.865	124.8
309.748	121.8
315.625	128.8
321.495	131.8
327.359	127.8
333.217	125.8
339.068	123.8
344.912	126.8
350.751	121.8
356.583	119.8
362.408	121.8
368.227	123.8
374.04	129.8
379.847	135.8
385.647	142.8
391.44	146.8
397.228	151.8
403.009	159.8
408.784	160.8
414.553	169.8
420.315	167.8
426.071	172.8
431.821	161.8
437.565	135.8
443.302	133.8
449.033	139.8
454.758	129.8
460.477	128.8
466.189	128.8
471.896	126.8
477.596	126.8
483.29	121.8
488.978	120.8
494.66	115.8
500.335	117.8
506.005	108.8
511.668	106.8
517.325	96.8
522.977	90.8
528.622	92.8
534.261	89.8
539.894	86.8
545.521	82.8
551.141	83.8
556.756	77.8
562.365	71.8
567.968	72.8
573.565	72.8
579.155	71.8
584.74	71.8
590.319	69.8
595.892	73.8
601.459	71.8
607.02	71.8
612.575	68.8
618.124	70.8
623.667	70.8
629.204	70.8
634.735	67.8
640.261	72.8
645.781	70.8
651.294	80.8
656.802	78.8
662.304	63.8
667.8	62.8
673.29	63.8
678.775	61.8
684.254	64.8
689.726	59.8
695.193	66.8
700.655	61.8
706.11	65.8
711.56	58.8
717.004	58.8
722.442	61.8
727.874	59.8
733.301	53.8
738.722	60.8
744.137	63.8
749.547	63.8
754.951	66.8
760.349	68.8
765.741	61.8
771.128	63.8
776.509	61.8
781.885	67.8
787.254	68.8
792.618	69.8
797.977	70.8
803.33	86.8
808.677	100.8
814.019	115.8
819.355	112.8
824.686	88.8
830.011	75.8
835.33	77.8
840.644	88.8
845.952	92.8
851.255	90.8
856.552	84.8
861.844	69.8
867.13	66.8
872.41	63.8
877.686	60.8
882.955	53.8
888.219	57.8
893.478	52.8
898.731	58.8
903.979	59.8
909.221	66.8
914.458	58.8
919.69	55.8
924.916	53.8
930.136	54.8
935.351	53.8
940.561	55.8
945.766	54.8
950.965	58.8
956.158	59.8
961.347	60.8
966.529	61.8
971.707	62.8
976.879	67.8
982.046	70.8
987.208	61.8
992.364	55.8
997.515	55.8
1002.66	66.8
1007.801	68.8
1012.936	56.8
1018.066	55.8
1023.19	58.8
1028.309	54.8
1033.423	57.8
1038.532	67.8
1043.636	72.8
1048.734	69.8
1053.827	63.8
1058.915	52.8
1063.998	52.8
1069.075	45.8
1074.147	47.8
1079.214	48.8
1084.276	49.8
1089.333	53.8
1094.385	49.8
1099.431	49.8
1104.472	46.8
1109.509	50.8
1114.54	47.8
1119.565	50.8
1124.586	50.8
1129.602	53.8
1134.613	49.8
1139.618	51.8
1144.619	58.8
1149.614	65.8
1154.604	80.8
1159.589	84.8
1164.5

Note: Data/Raman/2018-3-19 - Pesticide/Organized/0.125_n=1_RamanShift_02.txt
Data from 0.125_n=1_RamanShift_02.txt Node
Date: Mon Mar 19 12:05:24 IST 2018
User: aro
Spectrometer: QEPB0276
Trigger mode: 0
Integration Time (sec): 5.000000E0
Scans to average: 1
Electric dark correction enabled: true
Nonlinearity correction enabled: false
Boxcar width: 0
XAxis mode: Raman Shifts
Number of Pixels in Spectrum: 1044
>>>>>Begin Spectral Data<<<<<
160.701	-0.4
166.742	1.6
172.777	4.6
178.805	13.6
184.826	26.6
190.841	48.6
196.849	83.6
202.85	107.6
208.845	108.6
214.833	113.6
220.815	118.6
226.789	115.6
232.758	113.6
238.719	118.6
244.674	120.6
250.623	121.6
256.565	118.6
262.5	116.6
268.429	124.6
274.351	121.6
280.267	126.6
286.176	118.6
292.079	119.6
297.975	124.6
303.865	122.6
309.748	126.6
315.625	125.6
321.495	123.6
327.359	131.6
333.217	129.6
339.068	128.6
344.912	126.6
350.751	122.6
356.583	122.6
362.408	121.6
368.227	124.6
374.04	126.6
379.847	138.6
385.647	137.6
391.44	141.6
397.228	150.6
403.009	158.6
408.784	157.6
414.553	156.6
420.315	163.6
426.071	171.6
431.821	159.6
437.565	141.6
443.302	133.6
449.033	136.6
454.758	131.6
460.477	134.6
466.189	135.6
471.896	121.6
477.596	119.6
483.29	119.6
488.978	124.6
494.66	120.6
500.335	121.6
506.005	108.6
511.668	106.6
517.325	97.6
522.977	90.6
528.622	89.6
534.261	92.6
539.894	83.6
545.521	84.6
551.141	81.6
556.756	82.6
562.365	77.6
567.968	75.6
573.565	79.6
579.155	68.6
584.74	70.6
590.319	71.6
595.892	72.6
601.459	77.6
607.02	73.6
612.575	70.6
618.124	69.6
623.667	73.6
629.204	69.6
634.735	64.6
640.261	70.6
645.781	72.6
651.294	78.6
656.802	76.6
662.304	68.6
667.8	67.6
673.29	67.6
678.775	62.6
684.254	64.6
689.726	57.6
695.193	62.6
700.655	63.6
706.11	63.6
711.56	62.6
717.004	64.6
722.442	60.6
727.874	64.6
733.301	57.6
738.722	60.6
744.137	56.6
749.547	57.6
754.951	63.6
760.349	60.6
765.741	65.6
771.128	64.6
776.509	61.6
781.885	67.6
787.254	66.6
792.618	66.6
797.977	71.6
803.33	84.6
808.677	100.6
814.019	112.6
819.355	109.6
824.686	87.6
830.011	78.6
835.33	78.6
840.644	95.6
845.952	99.6
851.255	94.6
856.552	83.6
861.844	68.6
867.13	65.6
872.41	59.6
877.686	58.6
882.955	56.6
888.219	59.6
893.478	59.6
898.731	57.6
903.979	61.6
909.221	63.6
914.458	53.6
919.69	53.6
924.916	53.6
930.136	50.6
935.351	56.6
940.561	54.6
945.766	62.6
950.965	56.6
956.158	57.6
961.347	56.6
966.529	56.6
971.707	61.6
976.879	66.6
982.046	68.6
987.208	59.6
992.364	59.6
997.515	57.6
1002.66	65.6
1007.801	66.6
1012.936	61.6
1018.066	57.6
1023.19	50.6
1028.309	54.6
1033.423	58.6
1038.532	68.6
1043.636	67.6
1048.734	70.6
1053.827	69.6
1058.915	52.6
1063.998	54.6
1069.075	49.6
1074.147	46.6
1079.214	47.6
1084.276	47.6
1089.333	54.6
1094.385	54.6
1099.431	58.6
1104.472	50.6
1109.509	55.6
1114.54	48.6
1119.565	45.6
1124.586	49.6
1129.602	45.6
1134.613	52.6
1139.618	53.6
1144.619	62.6
1149.614	70.6
1154.604	82.6
1159.589	86.6
1164.5

File: dark_RamanShift_03.txt
Data from empty plastic_RamanShift_05.txt Node

Date: Mon Mar 19 11:57:44 IST 2018
User: aro
Spectrometer: QEPB0276
Trigger mode: 0
Integration Time (sec): 5.000000E0
Scans to average: 1
Electric dark correction enabled: true
Nonlinearity correction enabled: false
Boxcar width: 0
XAxis mode: Raman Shifts
Number of Pixels in Spectrum: 1044
>>>>>Begin Spectral Data<<<<<
160.701	-0.8
184.826	0.2
208.845	-3.8
232.758	-0.8
256.565	-0.8
280.267	1.2
303.865	3.2
327.359	-3.8
350.751	0.2
374.04	-1.8
397.228	0.2
420.315	1.2
443.302	-3.8
466.189	2.2
488.978	-0.8
511.668	-1.8
534.261	0.2
556.756	-0.8
579.155	-4.8
601.459	2.2
623.667	0.2
645.781	-3.8
667.8	0.2
689.726	-4.8
711.56	2.2
733.301	-5.8
754.951	-1.8
776.509	0.2
797.977	-0.8
819.355	4.2
840.644	-0.8
861.844	1.2
882.955	-1.8
903.979	-0.8
924.916	2.2
945.766	-0.8
966.529	1.2
987.208	0.2
1007.801	5.2
1028.309	-2.8
1048.734	3.2
1069.075	-2.8
1089.333	2.2
1109.509	0.2
1129.602	-4.8
1149.614	1.2
1169.545	0.2
1189.395	-1.8
1209.165	0.2
1228.856	-0.8
1248.467	1.2
1268	-0.8
1287.455	0.2
1306.832	-1.8
1326.132	0.2
1345.354	-0.8
1364.501	1.2
1383.572	-5.8
1402.567	5.2
1421.487	0.2
1440.333	0.2
1459.104	3.2
1477.802	-1.8
1496.426	1.2
1514.978	-0.8
1533.457	0.2
1551.864	-1.8
1570.199	-2.8
1588.464	-0.8
1606.657	-2.8
1624.78	3.2
1642.834	1.2
1660.817	-2.8
1678.732	0.2
1696.577	-1.8
1714.355	-3.8
1732.064	0.2
1749.705	1.2
1767.28	-1.8
1784.787	1.2
1802.228	0.2
1819.603	1.2
1836.913	-2.8
1854.156	-0.8
1871.335	2.2
1888.449	-1.8
1905.499	2.2
1922.485	-2.8
1939.408	2.2
1956.267	-3.8
1973.063	1.2
1989.797	0.2
2006.469	-0.8
2023.078	2.2
2039.627	-2.8
2056.114	1.2
2072.54	0.2
2088.906	1.2
2105.211	1.2
2121.457	0.2
2137.643	-4.8
2153.77	2.2
2169.838	-1.8
2185.848	1.2
2201.799	2.2
2217.693	-1.8
2233.529	1.2
2249.307	-2.8
2265.029	0.2
2280.694	0.2
2296.302	1.2
2311.854	-3.8
2327.351	-0.8
2342.792	-4.8
2358.178	-2.8
2373.508	-0.8
2388.785	-1.8
2404.007	-0.8
2419.174	1.2
2434.289	1.2
2449.349	0.2
2464.356	4.2
2479.311	-1.8
2494.213	4.2
2509.062	-3.8
2523.859	1.2
2538.605	-1.8
2553.299	1.2
2567.941	-0.8
2582.533	-0.8
2597.073	-0.8
2611.564	4.2
2626.004	0.2
2640.394	0.2
2654.734	4.2
2669.025	-0.8
2683.266	2.2
2697.458	-0.8
2711.602	3.2
2725.697	-1.8
2739.744	3.2
2753.743	0.2
2767.695	1.2
2781.598	-0.8
2795.455	2.2
2809.264	2.2
2823.026	-1.8
2836.742	0.2
2850.412	0.2
2864.035	1.2
2877.613	2.2
2891.145	-0.8
2904.631	-0.8
2918.073	-2.8
2931.469	1.2
2944.821	-0.8
2958.128	-0.8
2971.39	1.2
2984.609	-4.8
2997.784	3.2
3010.915	-0.8
3024.002	-1.8
3037.046	-2.8
3050.048	-1.8
3063.006	1.2
3075.922	0.2
3088.795	-0.8
3101.627	-1.8
3114.416	0.2
3127.163	0.2
3139.869	-0.8
3152.533	0.2
3165.157	-2.8
3177.739	-0.8
3190.28	-2.8
3202.781	2.2
3215.241	-1.8
3227.661	2.2
3240.041	-2.8
3252.382	2.2
3264.682	1.2
3276.943	-3.8
3289.165	-0.8
3301.348	-3.8
3313.492	-0.8
3325.597	-0.8
3337.663	-1.8
3349.691	2.2
3361.681	-1.8
3373.633	1.2
3385.547	1.2
3397.424	-2.8
3409.263	2.2
3421.065	3.2
3432.829	-3.8
3444.557	4.2
3456.247	-3.8
3467.902	-2.8
3479.519	-1.8
3491.101	0.2
3502.646	3.2
3514.155	-0.8
3525.629	-0.8
3537.067	-1.8
3548.469	-2.8
3559.837	-0.8
3571.169	0.2
3582.466	-3.8
3593.728	3.2
3604.956	-0.8
3616.149	-1.8
3627.307	1.2
3638.432	-1.8
3649.523	0.2
3660.579	4.2
3671.602	-0.8
3682.591	2.2
3693.547	-0.8
3704.47	1.2
3715.359	3.2
3726.216	-6.8
3737.039	5.2
3747.83	0.2
3758.589	0.2
3769.315	0.2
3780.008	0.2
3790.67	1.2
3801.299	1.2
3811.897	-2.8
3822.463	-0.8
3832.998	0.2
3843.501	-1.8
3853.973	3.2
3864.414	-3.8
3874.823	0.2
3885.202	0.2
3895.55	0.2
3905.868	2.2
3916.155	2.2
3926.411	-0.8
3936.638	0.2
3946.834	1.2
3957	3.2
3967.137	0.2
3977.244	-3.8
3987.321	3.2
3997.369	-3.8
4007.388	0.2
4017.377	3.2
4027.338	-3.8
4037.269	1.2
4047.172	0.2
4057.046	0.2
4066.891	1.2
4076.708	-0.8
4086.497	2.2
4096.257	-3.8
4105.989	5.2
4115.694	-2.8
4125.37	-6.8
4135.019	4.2
4142.237	-3.8

File: empty plastic_RamanShift_01.txt
Data from empty plastic_RamanShift_01.txt Node

Date: Mon Mar 19 11:57:19 IST 2018
User: aro
Spectrometer: QEPB0276
Trigger mode: 0
Integration Time (sec): 5.000000E0
Scans to average: 1
Electric dark correction enabled: true
Nonlinearity correction enabled: false
Boxcar width: 0
XAxis mode: Raman Shifts
Number of Pixels in Spectrum: 1044
>>>>>Begin Spectral Data<<<<<
160.701	-2.6
184.826	15.4
208.845	61.4
232.758	67.4
256.565	76.4
280.267	79.4
303.865	78.4
327.359	83.4
350.751	82.4
374.04	86.4
397.228	98.4
420.315	120.4
443.302	87.4
466.189	94.4
488.978	83.4
511.668	60.4
534.261	48.4
556.756	36.4
579.155	35.4
601.459	36.4
623.667	34.4
645.781	37.4
667.8	29.4
689.726	26.4
711.56	29.4
733.301	26.4
754.951	30.4
776.509	30.4
797.977	37.4
819.355	55.4
840.644	45.4
861.844	34.4
882.955	21.4
903.979	28.4
924.916	23.4
945.766	27.4
966.529	34.4
987.208	27.4
1007.801	35.4
1028.309	23.4
1048.734	33.4
1069.075	23.4
1089.333	24.4
1109.509	22.4
1129.602	19.4
1149.614	25.4
1169.545	36.4
1189.395	24.4
1209.165	19.4
1228.856	24.4
1248.467	22.4
1268	12.4
1287.455	22.4
1306.832	21.4
1326.132	30.4
1345.354	28.4
1364.501	27.4
1383.572	14.4
1402.567	15.4
1421.487	15.4
1440.333	26.4
1459.104	38.4
1477.802	23.4
1496.426	20.4
1514.978	10.4
1533.457	15.4
1551.864	9.4
1570.199	11.4
1588.464	13.4
1606.657	8.4
1624.78	12.4
1642.834	11.4
1660.817	5.4
1678.732	13.4
1696.577	11.4
1714.355	11.4
1732.064	9.4
1749.705	12.4
1767.28	7.4
1784.787	12.4
1802.228	10.4
1819.603	8.4
1836.913	6.4
1854.156	5.4
1871.335	11.4
1888.449	4.4
1905.499	8.4
1922.485	7.4
1939.408	6.4
1956.267	7.4
1973.063	10.4
1989.797	4.4
2006.469	8.4
2023.078	5.4
2039.627	1.4
2056.114	4.4
2072.54	3.4
2088.906	9.4
2105.211	4.4
2121.457	6.4
2137.643	4.4
2153.77	6.4
2169.838	2.4
2185.848	4.4
2201.799	5.4
2217.693	3.4
2233.529	8.4
2249.307	2.4
2265.029	1.4
2280.694	4.4
2296.302	2.4
2311.854	-0.6
2327.351	2.4
2342.792	-3.6
2358.178	3.4
2373.508	-2.6
2388.785	4.4
2404.007	2.4
2419.174	2.4
2434.289	6.4
2449.349	-0.6
2464.356	5.4
2479.311	-0.6
2494.213	0.4
2509.062	1.4
2523.859	0.4
2538.605	1.4
2553.299	2.4
2567.941	0.4
2582.533	2.4
2597.073	2.4
2611.564	5.4
2626.004	2.4
2640.394	1.4
2654.734	3.4
2669.025	-1.6
2683.266	-1.6
2697.458	-1.6
2711.602	0.4
2725.697	2.4
2739.744	1.4
2753.743	-1.6
2767.695	2.4
2781.598	0.4
2795.455	0.4
2809.264	0.4
2823.026	-0.6
2836.742	6.4
2850.412	13.4
2864.035	9.4
2877.613	23.4
2891.145	26.4
2904.631	20.4
2918.073	15.4
2931.469	12.4
2944.821	9.4
2958.128	13.4
2971.39	8.4
2984.609	1.4
2997.784	4.4
3010.915	0.4
3024.002	-0.6
3037.046	-5.6
3050.048	0.4
3063.006	-2.6
3075.922	-6.6
3088.795	0.4
3101.627	-6.6
3114.416	4.4
3127.163	-0.6
3139.869	0.4
3152.533	0.4
3165.157	-1.6
3177.739	-1.6
3190.28	-3.6
3202.781	-0.6
3215.241	-1.6
3227.661	-0.6
3240.041	-4.6
3252.382	-1.6
3264.682	-0.6
3276.943	-4.6
3289.165	-0.6
3301.348	-2.6
3313.492	-2.6
3325.597	-0.6
3337.663	-2.6
3349.691	-0.6
3361.681	-1.6
3373.633	-2.6
3385.547	-2.6
3397.424	-5.6
3409.263	-0.6
3421.065	2.4
3432.829	-4.6
3444.557	0.4
3456.247	-7.6
3467.902	-5.6
3479.519	-2.6
3491.101	-4.6
3502.646	1.4
3514.155	-3.6
3525.629	0.4
3537.067	-5.6
3548.469	-6.6
3559.837	-2.6
3571.169	-0.6
3582.466	-3.6
3593.728	-0.6
3604.956	-3.6
3616.149	-1.6
3627.307	-2.6
3638.432	-3.6
3649.523	-3.6
3660.579	-0.6
3671.602	0.4
3682.591	-2.6
3693.547	0.4
3704.47	-3.6
3715.359	-1.6
3726.216	-0.6
3737.039	-3.6
3747.83	1.4
3758.589	0.4
3769.315	-5.6
3780.008	2.4
3790.67	-0.6
3801.299	0.4
3811.897	0.4
3822.463	-5.6
3832.998	0.4
3843.501	-4.6
3853.973	0.4
3864.414	-5.6
3874.823	-3.6
3885.202	5.4
3895.55	-3.6
3905.868	-0.6
3916.155	2.4
3926.411	-0.6
3936.638	0.4
3946.834	-0.6
3957	-5.6
3967.137	-0.6
3977.244	-3.6
3987.321	-2.6
3997.369	-4.6
4007.388	-3.6
4017.377	3.4
4027.338	-2.6
4037.269	-0.6
4047.172	-0.6
4057.046	-2.6
4066.891	-3.6
4076.708	2.4
4086.497	-3.6
4096.257	-4.6
4105.989	1.4
4115.694	3.4
4125.37	-7.6
4135.019	-0.6
4142.237	-3.6

File: empty plastic_RamanShift_02.txt
Data from empty plastic_RamanShift_02.txt Node

Date: Mon Mar 19 11:57:24 IST 2018
User: aro
Spectrometer: QEPB0276
Trigger mode: 0
Integration Time (sec): 5.000000E0
Scans to average: 1
Electric dark correction enabled: true
Nonlinearity correction enabled: false
Boxcar width: 0
XAxis mode: Raman Shifts
Number of Pixels in Spectrum: 1044
>>>>>Begin Spectral Data<<<<<
160.701	1
184.826	18
208.845	63
232.758	67
256.565	71
280.267	77
303.865	76
327.359	82
350.751	82
374.04	86
397.228	100
420.315	119
443.302	91
466.189	88
488.978	81
511.668	64
534.261	47
556.756	40
579.155	34
601.459	41
623.667	35
645.781	38
667.8	32
689.726	21
711.56	25
733.301	23
754.951	29
776.509	33
797.977	35
819.355	58
840.644	42
861.844	34
882.955	24
903.979	26
924.916	23
945.766	26
966.529	27
987.208	27
1007.801	29
1028.309	26
1048.734	33
1069.075	18
1089.333	26
1109.509	23
1129.602	22
1149.614	30
1169.545	34
1189.395	22
1209.165	20
1228.856	23
1248.467	21
1268	16
1287.455	22
1306.832	21
1326.132	27
1345.354	27
1364.501	22
1383.572	12
1402.567	17
1421.487	16
1440.333	26
1459.104	42
1477.802	26
1496.426	18
1514.978	12
1533.457	11
1551.864	11
1570.199	11
1588.464	10
1606.657	10
1624.78	11
1642.834	10
1660.817	9
1678.732	9
1696.577	15
1714.355	9
1732.064	8
1749.705	9
1767.28	5
1784.787	13
1802.228	5
1819.603	6
1836.913	5
1854.156	5
1871.335	11
1888.449	6
1905.499	6
1922.485	3
1939.408	8
1956.267	2
1973.063	9
1989.797	4
2006.469	5
2023.078	6
2039.627	1
2056.114	5
2072.54	2
2088.906	7
2105.211	7
2121.457	3
2137.643	3
2153.77	2
2169.838	0
2185.848	6
2201.799	2
2217.693	1
2233.529	6
2249.307	0
2265.029	6
2280.694	4
2296.302	2
2311.854	2
2327.351	4
2342.792	0
2358.178	1
2373.508	-1
2388.785	5
2404.007	-4
2419.174	1
2434.289	1
2449.349	-1
2464.356	6
2479.311	-2
2494.213	2
2509.062	0
2523.859	1
2538.605	0
2553.299	0
2567.941	2
2582.533	0
2597.073	3
2611.564	1
2626.004	2
2640.394	0
2654.734	1
2669.025	2
2683.266	-1
2697.458	-3
2711.602	3
2725.697	0
2739.744	4
2753.743	1
2767.695	0
2781.598	2
2795.455	0
2809.264	1
2823.026	3
2836.742	8
2850.412	12
2864.035	11
2877.613	20
2891.145	28
2904.631	21
2918.073	13
2931.469	14
2944.821	8
2958.128	14
2971.39	10
2984.609	-2
2997.784	5
3010.915	-1
3024.002	-3
3037.046	-3
3050.048	-1
3063.006	-4
3075.922	-5
3088.795	-2
3101.627	-4
3114.416	-1
3127.163	0
3139.869	0
3152.533	-2
3165.157	-3
3177.739	-3
3190.28	-7
3202.781	-1
3215.241	-3
3227.661	-1
3240.041	-1
3252.382	-6
3264.682	1
3276.943	0
3289.165	-7
3301.348	-1
3313.492	-2
3325.597	-7
3337.663	-2
3349.691	-4
3361.681	-2
3373.633	-3
3385.547	-5
3397.424	0
3409.263	-2
3421.065	2
3432.829	-1
3444.557	-5
3456.247	-8
3467.902	-4
3479.519	-8
3491.101	0
3502.646	-1
3514.155	-3
3525.629	-3
3537.067	-10
3548.469	-2
3559.837	-6
3571.169	-1
3582.466	0
3593.728	-5
3604.956	-2
3616.149	-6
3627.307	-4
3638.432	-5
3649.523	-5
3660.579	-1
3671.602	-2
3682.591	-4
3693.547	2
3704.47	-9
3715.359	0
3726.216	-3
3737.039	-1
3747.83	-3
3758.589	-4
3769.315	-4
3780.008	-4
3790.67	0
3801.299	0
3811.897	-4
3822.463	-4
3832.998	-2
3843.501	-6
3853.973	3
3864.414	-6
3874.823	-1
3885.202	3
3895.55	-2
3905.868	-4
3916.155	-1
3926.411	0
3936.638	-3
3946.834	0
3957	-5
3967.137	-3
3977.244	-2
3987.321	-5
3997.369	-4
4007.388	-2
4017.377	-2
4027.338	-5
4037.269	-1
4047.172	-3
4057.046	-1
4066.891	-6
4076.708	-1
4086.497	-3
4096.257	-2
4105.989	4
4115.694	0
4125.37	-6
4135.019	0
4142.237	-8

File: empty plastic_RamanShift_03.txt
Data from empty plastic_RamanShift_03.txt Node

Date: Mon Mar 19 11:57:29 IST 2018
User: aro
Spectrometer: QEPB0276
Trigger mode: 0
Integration Time (sec): 5.000000E0
Scans to average: 1
Electric dark correction enabled: true
Nonlinearity correction enabled: false
Boxcar width: 0
XAxis mode: Raman Shifts
Number of Pixels in Spectrum: 1044
>>>>>Begin Spectral Data<<<<<
160.701	1.4
184.826	13.4
208.845	63.4
232.758	69.4
256.565	72.4
280.267	76.4
303.865	75.4
327.359	85.4
350.751	87.4
374.04	84.4
397.228	96.4
420.315	117.4
443.302	90.4
466.189	86.4
488.978	80.4
511.668	63.4
534.261	46.4
556.756	41.4
579.155	31.4
601.459	36.4
623.667	35.4
645.781	33.4
667.8	31.4
689.726	22.4
711.56	28.4
733.301	25.4
754.951	25.4
776.509	33.4
797.977	37.4
819.355	55.4
840.644	44.4
861.844	31.4
882.955	23.4
903.979	24.4
924.916	23.4
945.766	30.4
966.529	30.4
987.208	28.4
1007.801	34.4
1028.309	20.4
1048.734	34.4
1069.075	20.4
1089.333	24.4
1109.509	23.4
1129.602	19.4
1149.614	26.4
1169.545	36.4
1189.395	21.4
1209.165	19.4
1228.856	26.4
1248.467	20.4
1268	19.4
1287.455	21.4
1306.832	19.4
1326.132	30.4
1345.354	26.4
1364.501	24.4
1383.572	10.4
1402.567	14.4
1421.487	18.4
1440.333	23.4
1459.104	36.4
1477.802	27.4
1496.426	14.4
1514.978	11.4
1533.457	14.4
1551.864	7.4
1570.199	14.4
1588.464	14.4
1606.657	9.4
1624.78	16.4
1642.834	8.4
1660.817	5.4
1678.732	11.4
1696.577	5.4
1714.355	10.4
1732.064	6.4
1749.705	7.4
1767.28	8.4
1784.787	8.4
1802.228	7.4
1819.603	4.4
1836.913	4.4
1854.156	5.4
1871.335	10.4
1888.449	3.4
1905.499	11.4
1922.485	3.4
1939.408	9.4
1956.267	2.4
1973.063	1.4
1989.797	4.4
2006.469	2.4
2023.078	7.4
2039.627	4.4
2056.114	3.4
2072.54	5.4
2088.906	5.4
2105.211	7.4
2121.457	4.4
2137.643	0.4
2153.77	4.4
2169.838	3.4
2185.848	5.4
2201.799	4.4
2217.693	0.4
2233.529	5.4
2249.307	-3.6
2265.029	3.4
2280.694	2.4
2296.302	2.4
2311.854	0.4
2327.351	-1.6
2342.792	-0.6
2358.178	2.4
2373.508	-4.6
2388.785	4.4
2404.007	2.4
2419.174	2.4
2434.289	1.4
2449.349	-2.6
2464.356	8.4
2479.311	-2.6
2494.213	2.4
2509.062	-1.6
2523.859	1.4
2538.605	0.4
2553.299	0.4
2567.941	0.4
2582.533	1.4
2597.073	-1.6
2611.564	4.4
2626.004	0.4
2640.394	0.4
2654.734	4.4
2669.025	-0.6
2683.266	-2.6
2697.458	-0.6
2711.602	1.4
2725.697	0.4
2739.744	0.4
2753.743	-2.6
2767.695	1.4
2781.598	-2.6
2795.455	0.4
2809.264	1.4
2823.026	2.4
2836.742	7.4
2850.412	14.4
2864.035	7.4
2877.613	22.4
2891.145	26.4
2904.631	20.4
2918.073	14.4
2931.469	10.4
2944.821	9.4
2958.128	11.4
2971.39	6.4
2984.609	-1.6
2997.784	3.4
3010.915	1.4
3024.002	-1.6
3037.046	-5.6
3050.048	1.4
3063.006	-3.6
3075.922	-6.6
3088.795	0.4
3101.627	-4.6
3114.416	-0.6
3127.163	-1.6
3139.869	-3.6
3152.533	-1.6
3165.157	-3.6
3177.739	-4.6
3190.28	-7.6
3202.781	-0.6
3215.241	-3.6
3227.661	0.4
3240.041	-6.6
3252.382	-2.6
3264.682	-2.6
3276.943	-4.6
3289.165	-1.6
3301.348	-5.6
3313.492	-5.6
3325.597	-4.6
3337.663	-1.6
3349.691	-0.6
3361.681	-3.6
3373.633	-2.6
3385.547	-2.6
3397.424	-4.6
3409.263	0.4
3421.065	1.4
3432.829	-4.6
3444.557	0.4
3456.247	-6.6
3467.902	-4.6
3479.519	-5.6
3491.101	-2.6
3502.646	0.4
3514.155	-8.6
3525.629	-1.6
3537.067	-6.6
3548.469	-3.6
3559.837	-4.6
3571.169	-1.6
3582.466	-1.6
3593.728	0.4
3604.956	-5.6
3616.149	-2.6
3627.307	-4.6
3638.432	-5.6
3649.523	-4.6
3660.579	-1.6
3671.602	-1.6
3682.591	-3.6
3693.547	0.4
3704.47	-7.6
3715.359	-2.6
3726.216	-1.6
3737.039	-2.6
3747.83	-3.6
3758.589	-4.6
3769.315	-5.6
3780.008	-0.6
3790.67	-3.6
3801.299	-0.6
3811.897	-3.6
3822.463	-9.6
3832.998	-2.6
3843.501	-2.6
3853.973	0.4
3864.414	-5.6
3874.823	-3.6
3885.202	2.4
3895.55	-5.6
3905.868	-4.6
3916.155	-1.6
3926.411	-1.6
3936.638	-3.6
3946.834	0.4
3957	-5.6
3967.137	-0.6
3977.244	-2.6
3987.321	-4.6
3997.369	-3.6
4007.388	-1.6
4017.377	-2.6
4027.338	-3.6
4037.269	-4.6
4047.172	-4.6
4057.046	-3.6
4066.891	-6.6
4076.708	-2.6
4086.497	-3.6
4096.257	-2.6
4105.989	5.4
4115.694	-0.6
4125.37	-6.6
4135.019	0.4
4142.237	-7.6