Folder: Water/Data/Raman/Excelled/2016/Pathogens 18Dec2016

Note: Data/Raman/Excelled/2016/Pathogens 18Dec2016/Ethanol_10CFU_RamanShift_10-52-49-060.txt
Data from Ethanol_10CFU_RamanShift_10-52-49-060.txt Node
Date: Sun Dec 18 10:52:49 IST 2016
User: aro
Spectrometer: QEPB0276
Trigger mode: 0
Integration Time (sec): 5.000000E0
Scans to average: 1
Electric dark correction enabled: true
Nonlinearity correction enabled: false
Boxcar width: 0
XAxis mode: Raman Shifts
Number of Pixels in Spectrum: 1044
>>>>>Begin Spectral Data<<<<<
160.701	11
166.742	17
172.777	26
178.805	76
184.826	219
190.841	531
196.849	979
202.85	1404
208.845	1618
214.833	1629
220.815	1582
226.789	1537
232.758	1519
238.719	1514
244.674	1490
250.623	1512
256.565	1475
262.5	1489
268.429	1481
274.351	1466
280.267	1450
286.176	1418
292.079	1385
297.975	1337
303.865	1272
309.748	1234
315.625	1179
321.495	1139
327.359	1113
333.217	1082
339.068	1074
344.912	1041
350.751	1046
356.583	1050
362.408	1047
368.227	1059
374.04	1067
379.847	1087
385.647	1114
391.44	1164
397.228	1220
403.009	1292
408.784	1413
414.553	1615
420.315	1888
426.071	2368
431.821	2977
437.565	3621
443.302	3877
449.033	3642
454.758	3171
460.477	2604
466.189	2146
471.896	1802
477.596	1548
483.29	1385
488.978	1271
494.66	1203
500.335	1143
506.005	1090
511.668	1033
517.325	994
522.977	942
528.622	912
534.261	890
539.894	870
545.521	865
551.141	864
556.756	863
562.365	854
567.968	850
573.565	842
579.155	844
584.74	852
590.319	854
595.892	859
601.459	854
607.02	859
612.575	857
618.124	856
623.667	848
629.204	846
634.735	851
640.261	845
645.781	842
651.294	840
656.802	838
662.304	850
667.8	844
673.29	845
678.775	850
684.254	841
689.726	839
695.193	849
700.655	841
706.11	853
711.56	841
717.004	844
722.442	843
727.874	841
733.301	838
738.722	846
744.137	862
749.547	857
754.951	874
760.349	871
765.741	899
771.128	908
776.509	938
781.885	972
787.254	985
792.618	1027
797.977	1072
803.33	1115
808.677	1178
814.019	1237
819.355	1276
824.686	1312
830.011	1312
835.33	1376
840.644	1432
845.952	1560
851.255	1750
856.552	2024
861.844	2474
867.13	3268
872.41	4905
877.686	8364
882.955	14578
888.219	21513
893.478	23697
898.731	18415
903.979	10609
909.221	5678
914.458	3553
919.69	2582
924.916	2086
930.136	1796
935.351	1621
940.561	1455
945.766	1380
950.965	1304
956.158	1257
961.347	1225
966.529	1212
971.707	1168
976.879	1186
982.046	1193
987.208	1203
992.364	1257
997.515	1332
1002.66	1422
1007.801	1548
1012.936	1741
1018.066	1981
1023.19	2370
1028.309	2865
1033.423	3568
1038.532	4461
1043.636	5497
1048.734	6837
1053.827	8214
1058.915	9060
1063.998	8685
1069.075	7374
1074.147	6052
1079.214	5466
1084.276	5643
1089.333	6427
1094.385	7636
1099.431	8950
1104.472	9410
1109.509	8480
1114.54	6765
1119.565	5292
1124.586	4451
1129.602	3914
1134.613	3428
1139.618	2938
1144.619	2481
1149.614	2159
1154.604	1938
1159.589	1795
1164.57	1654
1169.545	1542
1174.515	1447
1179.48	1356
1184.44	1279
1189.395	1219
1194.345	1192
1

Note: Data/Raman/Excelled/2016/Pathogens 18Dec2016/Ethanol_100CFU_RamanShift_10-55-04-005.txt
Data from Ethanol_1000CFU_RamanShift_10-55-04-005.txt Node
Date: Sun Dec 18 10:55:04 IST 2016
User: aro
Spectrometer: QEPB0276
Trigger mode: 0
Integration Time (sec): 5.000000E0
Scans to average: 1
Electric dark correction enabled: true
Nonlinearity correction enabled: false
Boxcar width: 0
XAxis mode: Raman Shifts
Number of Pixels in Spectrum: 1044
>>>>>Begin Spectral Data<<<<<
160.701	11.25
166.742	13.25
172.777	28.25
178.805	71.25
184.826	199.25
190.841	463.25
196.849	837.25
202.85	1173.25
208.845	1358.25
214.833	1375.25
220.815	1311.25
226.789	1279.25
232.758	1249.25
238.719	1241.25
244.674	1225.25
250.623	1197.25
256.565	1216.25
262.5	1187.25
268.429	1179.25
274.351	1184.25
280.267	1157.25
286.176	1135.25
292.079	1090.25
297.975	1048.25
303.865	1005.25
309.748	940.25
315.625	910.25
321.495	878.25
327.359	849.25
333.217	835.25
339.068	819.25
344.912	820.25
350.751	810.25
356.583	790.25
362.408	815.25
368.227	824.25
374.04	840.25
379.847	851.25
385.647	892.25
391.44	926.25
397.228	986.25
403.009	1052.25
408.784	1158.25
414.553	1320.25
420.315	1594.25
426.071	2027.25
431.821	2609.25
437.565	3172.25
443.302	3419.25
449.033	3233.25
454.758	2738.25
460.477	2261.25
466.189	1801.25
471.896	1494.25
477.596	1274.25
483.29	1121.25
488.978	1020.25
494.66	941.25
500.335	890.25
506.005	833.25
511.668	776.25
517.325	738.25
522.977	695.25
528.622	660.25
534.261	639.25
539.894	617.25
545.521	612.25
551.141	604.25
556.756	596.25
562.365	586.25
567.968	591.25
573.565	576.25
579.155	581.25
584.74	579.25
590.319	588.25
595.892	580.25
601.459	583.25
607.02	589.25
612.575	586.25
618.124	584.25
623.667	580.25
629.204	576.25
634.735	578.25
640.261	573.25
645.781	567.25
651.294	582.25
656.802	561.25
662.304	574.25
667.8	571.25
673.29	569.25
678.775	567.25
684.254	565.25
689.726	572.25
695.193	565.25
700.655	565.25
706.11	568.25
711.56	557.25
717.004	567.25
722.442	557.25
727.874	565.25
733.301	568.25
738.722	575.25
744.137	582.25
749.547	573.25
754.951	587.25
760.349	599.25
765.741	611.25
771.128	627.25
776.509	637.25
781.885	670.25
787.254	694.25
792.618	725.25
797.977	749.25
803.33	810.25
808.677	867.25
814.019	920.25
819.355	957.25
824.686	974.25
830.011	988.25
835.33	1026.25
840.644	1104.25
845.952	1230.25
851.255	1385.25
856.552	1632.25
861.844	2048.25
867.13	2772.25
872.41	4289.25
877.686	7558.25
882.955	13185.25
888.219	19579.25
893.478	21540.25
898.731	16541.25
903.979	9469.25
909.221	4955.25
914.458	2991.25
919.69	2115.25
924.916	1676.25
930.136	1405.25
935.351	1241.25
940.561	1101.25
945.766	1026.25
950.965	969.25
956.158	915.25
961.347	891.25
966.529	853.25
971.707	848.25
976.879	841.25
982.046	851.25
987.208	875.25
992.364	920.25
997.515	978.25
1002.66	1073.25
1007.801	1195.25
1012.936	1356.25
1018.066	1585.25
1023.19	1933.25
1028.309	2402.25
1033.423	3047.25
1038.532	3839.25
1043.636	4826.25
1048

File: Aluminium_RamanShift_12-02-18-865.txt
Data from Aluminium_RamanShift_12-02-18-865.txt Node

Date: Sun Dec 18 12:02:18 IST 2016
User: aro
Spectrometer: QEPB0276
Trigger mode: 0
Integration Time (sec): 5.000000E0
Scans to average: 1
Electric dark correction enabled: true
Nonlinearity correction enabled: false
Boxcar width: 0
XAxis mode: Raman Shifts
Number of Pixels in Spectrum: 1044
>>>>>Begin Spectral Data<<<<<
160.701	6.25
184.826	47.25
208.845	283.25
232.758	308.25
256.565	342.25
280.267	365.25
303.865	392.25
327.359	403.25
350.751	421.25
374.04	432.25
397.228	442.25
420.315	453.25
443.302	458.25
466.189	449.25
488.978	434.25
511.668	379.25
534.261	286.25
556.756	265.25
579.155	264.25
601.459	257.25
623.667	248.25
645.781	236.25
667.8	225.25
689.726	229.25
711.56	224.25
733.301	231.25
754.951	227.25
776.509	236.25
797.977	253.25
819.355	247.25
840.644	240.25
861.844	231.25
882.955	227.25
903.979	222.25
924.916	211.25
945.766	214.25
966.529	217.25
987.208	215.25
1007.801	219.25
1028.309	226.25
1048.734	220.25
1069.075	214.25
1089.333	225.25
1109.509	228.25
1129.602	204.25
1149.614	215.25
1169.545	211.25
1189.395	213.25
1209.165	215.25
1228.856	215.25
1248.467	218.25
1268	210.25
1287.455	200.25
1306.832	204.25
1326.132	216.25
1345.354	212.25
1364.501	210.25
1383.572	189.25
1402.567	187.25
1421.487	192.25
1440.333	188.25
1459.104	200.25
1477.802	201.25
1496.426	200.25
1514.978	212.25
1533.457	205.25
1551.864	194.25
1570.199	195.25
1588.464	181.25
1606.657	190.25
1624.78	173.25
1642.834	178.25
1660.817	193.25
1678.732	195.25
1696.577	196.25
1714.355	184.25
1732.064	173.25
1749.705	169.25
1767.28	162.25
1784.787	167.25
1802.228	176.25
1819.603	165.25
1836.913	148.25
1854.156	153.25
1871.335	153.25
1888.449	165.25
1905.499	160.25
1922.485	170.25
1939.408	169.25
1956.267	161.25
1973.063	149.25
1989.797	146.25
2006.469	140.25
2023.078	139.25
2039.627	135.25
2056.114	137.25
2072.54	137.25
2088.906	139.25
2105.211	130.25
2121.457	133.25
2137.643	133.25
2153.77	122.25
2169.838	117.25
2185.848	112.25
2201.799	111.25
2217.693	109.25
2233.529	111.25
2249.307	111.25
2265.029	102.25
2280.694	96.25
2296.302	103.25
2311.854	93.25
2327.351	88.25
2342.792	99.25
2358.178	94.25
2373.508	87.25
2388.785	87.25
2404.007	88.25
2419.174	80.25
2434.289	73.25
2449.349	84.25
2464.356	82.25
2479.311	76.25
2494.213	77.25
2509.062	77.25
2523.859	79.25
2538.605	76.25
2553.299	72.25
2567.941	72.25
2582.533	67.25
2597.073	72.25
2611.564	68.25
2626.004	65.25
2640.394	61.25
2654.734	52.25
2669.025	58.25
2683.266	53.25
2697.458	51.25
2711.602	53.25
2725.697	53.25
2739.744	51.25
2753.743	49.25
2767.695	47.25
2781.598	45.25
2795.455	40.25
2809.264	43.25
2823.026	36.25
2836.742	37.25
2850.412	37.25
2864.035	37.25
2877.613	32.25
2891.145	28.25
2904.631	31.25
2918.073	32.25
2931.469	25.25
2944.821	28.25
2958.128	24.25
2971.39	24.25
2984.609	25.25
2997.784	24.25
3010.915	22.25
3024.002	19.25
3037.046	15.25
3050.048	14.25
3063.006	16.25
3075.922	13.25
3088.795	11.25
3101.627	10.25
3114.416	7.25
3127.163	10.25
3139.869	8.25
3152.533	11.25
3165.157	6.25
3177.739	1.25
3190.28	6.25
3202.781	4.25
3215.241	3.25
3227.661	-1.75
3240.041	-5.75
3252.382	5.25
3264.682	1.25
3276.943	-2.75
3289.165	-2.75
3301.348	-4.75
3313.492	-0.75
3325.597	-2.75
3337.663	-4.75
3349.691	-2.75
3361.681	-7.75
3373.633	-5.75
3385.547	-3.75
3397.424	-2.75
3409.263	-5.75
3421.065	-7.75
3432.829	-5.75
3444.557	-7.75
3456.247	-8.75
3467.902	-9.75
3479.519	-7.75
3491.101	-6.75
3502.646	-8.75
3514.155	-7.75
3525.629	-11.75
3537.067	-13.75
3548.469	-11.75
3559.837	-8.75
3571.169	-14.75
3582.466	-11.75
3593.728	-13.75
3604.956	-7.75
3616.149	-9.75
3627.307	-10.75
3638.432	-12.75
3649.523	-15.75
3660.579	-14.75
3671.602	-11.75
3682.591	-12.75
3693.547	-14.75
3704.47	-13.75
3715.359	-6.75
3726.216	-15.75
3737.039	-14.75
3747.83	-9.75
3758.589	-14.75
3769.315	-10.75
3780.008	-11.75
3790.67	-14.75
3801.299	-12.75
3811.897	-15.75
3822.463	-11.75
3832.998	-12.75
3843.501	-14.75
3853.973	-13.75
3864.414	-14.75
3874.823	-11.75
3885.202	-0.75
3895.55	-11.75
3905.868	-10.75
3916.155	-17.75
3926.411	-13.75
3936.638	-13.75
3946.834	-15.75
3957	-15.75
3967.137	-9.75
3977.244	-17.75
3987.321	-16.75
3997.369	-13.75
4007.388	-10.75
4017.377	-14.75
4027.338	-15.75
4037.269	-11.75
4047.172	-10.75
4057.046	-11.75
4066.891	-14.75
4076.708	-12.75
4086.497	-15.75
4096.257	-14.75
4105.989	24.25
4115.694	10.25
4125.37	-13.75
4135.019	-11.75
4142.237	-10.75