Folder: Water/Data/Raman/2017-08-24 - Glass, alluminum 108/Aluminum II [full set] (part 2)

File: Alu-BS-107 30s,I=1, BC=3, 1sta _RamanShift_3.txt
Data from Alu-BS-107 30s,I=1, BC=3, 1sta _RamanShift_3.txt Node

Date: Thu Aug 24 13:49:21 IDT 2017
User: aro
Spectrometer: QEPB0276
Trigger mode: 0
Integration Time (sec): 3.000000E1
Scans to average: 1
Electric dark correction enabled: true
Nonlinearity correction enabled: false
Boxcar width: 5
XAxis mode: Raman Shifts
Number of Pixels in Spectrum: 1044
>>>>>Begin Spectral Data<<<<<
160.701	198.96
184.826	585.42
208.845	1007.49
232.758	1368.76
256.565	1477.22
280.267	1580.03
303.865	1670.03
327.359	1748.22
350.751	1841.12
374.04	1948.4
397.228	2248.31
420.315	2303.58
443.302	2235.4
466.189	1891.31
488.978	1686.67
511.668	1394.31
534.261	1082.85
556.756	919.31
579.155	870.22
601.459	845.85
623.667	880.67
645.781	871.03
667.8	827.67
689.726	702.49
711.56	673.76
733.301	694.85
754.951	716.85
776.509	749.03
797.977	746.94
819.355	732.22
840.644	679.22
861.844	621.12
882.955	574.12
903.979	546.76
924.916	535.85
945.766	528.76
966.529	517.85
987.208	507.85
1007.801	511.67
1028.309	527.94
1048.734	536.4
1069.075	533.58
1089.333	515.85
1109.509	493.03
1129.602	475.67
1149.614	472.31
1169.545	474.67
1189.395	475.03
1209.165	474.94
1228.856	471.76
1248.467	454.67
1268	430.4
1287.455	418.31
1306.832	418.67
1326.132	415.49
1345.354	403.76
1364.501	386.12
1383.572	371.31
1402.567	357.94
1421.487	352.4
1440.333	358.94
1459.104	363.94
1477.802	361.03
1496.426	357.22
1514.978	353.49
1533.457	349.03
1551.864	349.76
1570.199	343.03
1588.464	320.85
1606.657	305.22
1624.78	296.58
1642.834	295.22
1660.817	298.4
1678.732	294.4
1696.577	283.85
1714.355	267.4
1732.064	248.03
1749.705	232.67
1767.28	220.12
1784.787	213.94
1802.228	205.31
1819.603	192.85
1836.913	183.31
1854.156	181.94
1871.335	183.58
1888.449	183.76
1905.499	183.49
1922.485	181.67
1939.408	176.49
1956.267	164.58
1973.063	151.03
1989.797	139.67
2006.469	136.12
2023.078	132.4
2039.627	125.94
2056.114	123.76
2072.54	124.94
2088.906	122.76
2105.211	116.94
2121.457	110.03
2137.643	104.67
2153.77	99.12
2169.838	91.94
2185.848	85.31
2201.799	80.49
2217.693	77.94
2233.529	76.22
2249.307	72.22
2265.029	68.03
2280.694	65.67
2296.302	62.4
2311.854	74.31
2327.351	90.67
2342.792	85.85
2358.178	53.85
2373.508	42.76
2388.785	40.12
2404.007	37.12
2419.174	33.94
2434.289	31.67
2449.349	31.4
2464.356	29.31
2479.311	27.4
2494.213	25.4
2509.062	24.31
2523.859	21.49
2538.605	18.76
2553.299	16.4
2567.941	14.4
2582.533	11.67
2597.073	11.31
2611.564	9.31
2626.004	6.85
2640.394	1.4
2654.734	-1.06
2669.025	-3.78
2683.266	-6.6
2697.458	-11.06
2711.602	-13.15
2725.697	-12.97
2739.744	-11.97
2753.743	-12.33
2767.695	-15.78
2781.598	-18.78
2795.455	-20.88
2809.264	-21.42
2823.026	-21.97
2836.742	-22.88
2850.412	-23.88
2864.035	-25.33
2877.613	-26.97
2891.145	-31.88
2904.631	-34.97
2918.073	-37.69
2931.469	-37.88
2944.821	-39.42
2958.128	-40.15
2971.39	-42.6
2984.609	-43.42
2997.784	-43.42
3010.915	-44.6
3024.002	-46.33
3037.046	-48.78
3050.048	-49.6
3063.006	-50.33
3075.922	-52.51
3088.795	-53.42
3101.627	-55.6
3114.416	-56.06
3127.163	-56.97
3139.869	-57.42
3152.533	-57.51
3165.157	-57.78
3177.739	-58.24
3190.28	-59.24
3202.781	-59.78
3215.241	-61.24
3227.661	-62.88
3240.041	-63.15
3252.382	-63.42
3264.682	-64.06
3276.943	-64.78
3289.165	-66.78
3301.348	-68.06
3313.492	-68.6
3325.597	-68.15
3337.663	-67.88
3349.691	-66.78
3361.681	-68.42
3373.633	-69.24
3385.547	-69.51
3397.424	-69.24
3409.263	-69.69
3421.065	-69.6
3432.829	-68.42
3444.557	-68.51
3456.247	-66.78
3467.902	-66.69
3479.519	-67.88
3491.101	-71.6
3502.646	-72.24
3514.155	-73.42
3525.629	-73.33
3537.067	-72.06
3548.469	-71.33
3559.837	-71.24
3571.169	-71.33
3582.466	-71.24
3593.728	-74.15
3604.956	-75.42
3616.149	-75.88
3627.307	-76.15
3638.432	-75.33
3649.523	-76.97
3660.579	-76.78
3671.602	-76.88
3682.591	-75.97
3693.547	-75.33
3704.47	-75.88
3715.359	-77.78
3726.216	-79.51
3737.039	-80.69
3747.83	-81.06
3758.589	-80.33
3769.315	-77.97
3780.008	-81.06
3790.67	-80.24
3801.299	-77.69
3811.897	-75.6
3822.463	-77.78
3832.998	-79.51
3843.501	-78.69
3853.973	-77.6
3864.414	-62.97
3874.823	-1.06
3885.202	15.4
3895.55	-7.06
3905.868	-65.24
3916.155	-75.6
3926.411	-78.33
3936.638	-79.51
3946.834	-78.88
3957	-77.97
3967.137	-76.69
3977.244	-77.78
3987.321	-76.24
3997.369	-76.15
4007.388	-76.51
4017.377	-76.78
4027.338	-78.33
4037.269	-78.24
4047.172	-77.6
4057.046	-76.42
4066.891	-75.97
4076.708	-76.6
4086.497	-78.06
4096.257	-50.51
4105.989	-0.78
4115.694	-0.78
4125.37	-42.6
4135.019	-79.54
4142.237	-78.88

File: Alu-BS-108 30s,I=1, BC=3, 1sta _RamanShift_1.txt
Data from Alu-BS-108 30s,I=1, BC=3, 1sta _RamanShift_1.txt Node

Date: Thu Aug 24 13:51:51 IDT 2017
User: aro
Spectrometer: QEPB0276
Trigger mode: 0
Integration Time (sec): 3.000000E1
Scans to average: 1
Electric dark correction enabled: true
Nonlinearity correction enabled: false
Boxcar width: 5
XAxis mode: Raman Shifts
Number of Pixels in Spectrum: 1044
>>>>>Begin Spectral Data<<<<<
160.701	184.58
184.826	616.65
208.845	1096.34
232.758	1497.7
256.565	1616.8
280.267	1722.7
303.865	1817.16
327.359	1889.16
350.751	1970.34
374.04	2070.07
397.228	2346.8
420.315	2400.89
443.302	2337.16
466.189	2013.25
488.978	1821.52
511.668	1550.25
534.261	1264.07
556.756	1104.8
579.155	1051.07
601.459	1021.7
623.667	1050.34
645.781	1036.89
667.8	993.07
689.726	878.34
711.56	848.16
733.301	863.34
754.951	881.16
776.509	910.52
797.977	906.52
819.355	888.43
840.644	836.7
861.844	781.61
882.955	734.43
903.979	704.61
924.916	693.25
945.766	686.07
966.529	670.52
987.208	654.98
1007.801	655.25
1028.309	666.16
1048.734	670.8
1069.075	665.34
1089.333	651.52
1109.509	629.16
1129.602	608.07
1149.614	601.25
1169.545	599.61
1189.395	596.7
1209.165	589.25
1228.856	587.43
1248.467	569.98
1268	541.98
1287.455	527.89
1306.832	527.7
1326.132	524.98
1345.354	509.8
1364.501	486.34
1383.572	464.16
1402.567	447.43
1421.487	440.25
1440.333	446.8
1459.104	453.34
1477.802	454.25
1496.426	453.16
1514.978	445.25
1533.457	437.52
1551.864	428.34
1570.199	414.52
1588.464	388.7
1606.657	372.52
1624.78	364.89
1642.834	366.43
1660.817	372.8
1678.732	371.43
1696.577	359.07
1714.355	339.7
1732.064	317.43
1749.705	298.98
1767.28	291.8
1784.787	288.8
1802.228	281.89
1819.603	263.89
1836.913	250.25
1854.156	244.7
1871.335	245.8
1888.449	248.43
1905.499	251.25
1922.485	254.34
1939.408	249.89
1956.267	235.52
1973.063	218.07
1989.797	203.07
2006.469	194.07
2023.078	184.8
2039.627	176.16
2056.114	173.98
2072.54	176.8
2088.906	177.98
2105.211	174.16
2121.457	167.16
2137.643	158.34
2153.77	149.25
2169.838	138.34
2185.848	129.52
2201.799	123.8
2217.693	120.8
2233.529	118.8
2249.307	114.8
2265.029	109.52
2280.694	105.25
2296.302	99.98
2311.854	109.7
2327.351	123.8
2342.792	118.07
2358.178	87.43
2373.508	78.16
2388.785	76.34
2404.007	71.98
2419.174	69.89
2434.289	68.7
2449.349	66.34
2464.356	64.07
2479.311	61.43
2494.213	58.8
2509.062	58.52
2523.859	55.34
2538.605	51.43
2553.299	49.52
2567.941	48.52
2582.533	46.07
2597.073	43.34
2611.564	41.07
2626.004	37.07
2640.394	31.61
2654.734	26.61
2669.025	24.07
2683.266	22.34
2697.458	19.8
2711.602	18.34
2725.697	17.89
2739.744	19.61
2753.743	18.34
2767.695	14.07
2781.598	9.89
2795.455	7.25
2809.264	5.98
2823.026	5.89
2836.742	5.16
2850.412	4.8
2864.035	5.07
2877.613	2.7
2891.145	-2.2
2904.631	-7.11
2918.073	-10.93
2931.469	-11.93
2944.821	-11.75
2958.128	-11.2
2971.39	-10.02
2984.609	-11.48
2997.784	-13.02
3010.915	-17.39
3024.002	-20.2
3037.046	-23.93
3050.048	-24.39
3063.006	-24.11
3075.922	-23.57
3088.795	-22.75
3101.627	-24.3
3114.416	-25.66
3127.163	-27.3
3139.869	-28.48
3152.533	-31.3
3165.157	-32.39
3177.739	-32.75
3190.28	-31.93
3202.781	-31.3
3215.241	-31.75
3227.661	-33.11
3240.041	-35.57
3252.382	-36.66
3264.682	-38.02
3276.943	-37.66
3289.165	-36.39
3301.348	-35.84
3313.492	-35.93
3325.597	-37.66
3337.663	-39.3
3349.691	-40.66
3361.681	-42.84
3373.633	-44.48
3385.547	-43.84
3397.424	-42.84
3409.263	-42.39
3421.065	-42.2
3432.829	-41.2
3444.557	-41.02
3456.247	-42.48
3467.902	-41.93
3479.519	-44.93
3491.101	-46.11
3502.646	-46.11
3514.155	-46.3
3525.629	-45.66
3537.067	-45.02
3548.469	-44.39
3559.837	-43.93
3571.169	-44.2
3582.466	-44.48
3593.728	-45.39
3604.956	-45.66
3616.149	-46.3
3627.307	-47.39
3638.432	-47.11
3649.523	-46.84
3660.579	-46.02
3671.602	-46.02
3682.591	-46.3
3693.547	-45.93
3704.47	-47.11
3715.359	-48.93
3726.216	-50.66
3737.039	-49.48
3747.83	-47.57
3758.589	-45.48
3769.315	-45.75
3780.008	-49.57
3790.67	-50.75
3801.299	-48.57
3811.897	-46.84
3822.463	-47.66
3832.998	-49.93
3843.501	-49.3
3853.973	-48.2
3864.414	-42.3
3874.823	-18.11
3885.202	-11.66
3895.55	-21.11
3905.868	-44.48
3916.155	-49.2
3926.411	-50.84
3936.638	-50.84
3946.834	-50.57
3957	-47.39
3967.137	-45.57
3977.244	-44.02
3987.321	-45.3
3997.369	-45.84
4007.388	-48.11
4017.377	-49.2
4027.338	-50.66
4037.269	-49.02
4047.172	-46.11
4057.046	-44.75
4066.891	-45.66
4076.708	-46.66
4086.497	-48.66
4096.257	-36.75
4105.989	-13.2
4115.694	-15.3
4125.37	-34.48
4135.019	-52.53
4142.237	-50.75

File: Alu-BS-108 30s,I=1, BC=3, 1sta _RamanShift_2.txt
Data from Alu-BS-108 30s,I=1, BC=3, 1sta _RamanShift_2.txt Node

Date: Thu Aug 24 13:52:21 IDT 2017
User: aro
Spectrometer: QEPB0276
Trigger mode: 0
Integration Time (sec): 3.000000E1
Scans to average: 1
Electric dark correction enabled: true
Nonlinearity correction enabled: false
Boxcar width: 5
XAxis mode: Raman Shifts
Number of Pixels in Spectrum: 1044
>>>>>Begin Spectral Data<<<<<
160.701	182.88
184.826	608.67
208.845	1076.83
232.758	1469.19
256.565	1584.83
280.267	1696.47
303.865	1785.56
327.359	1857.38
350.751	1936.01
374.04	2037.28
397.228	2319.56
420.315	2369.92
443.302	2305.38
466.189	1977.1
488.978	1782.01
511.668	1509.28
534.261	1221.56
556.756	1067.19
579.155	1017.47
601.459	990.74
623.667	1020.65
645.781	1009.83
667.8	967.1
689.726	848.74
711.56	817.28
733.301	833.65
754.951	855.38
776.509	884.74
797.977	881.65
819.355	863.19
840.644	810.47
861.844	756.56
882.955	710.92
903.979	682.56
924.916	669.56
945.766	661.19
966.529	646.28
987.208	632.19
1007.801	634.92
1028.309	645.65
1048.734	648.92
1069.075	643.1
1089.333	634.38
1109.509	614.1
1129.602	591.47
1149.614	579.47
1169.545	576.65
1189.395	575.65
1209.165	572.19
1228.856	569.19
1248.467	548.19
1268	519.38
1287.455	509.56
1306.832	512.28
1326.132	508.92
1345.354	490.28
1364.501	469.19
1383.572	449.47
1402.567	433.56
1421.487	428.65
1440.333	453.01
1459.104	457.74
1477.802	456.92
1496.426	440.74
1514.978	434.28
1533.457	424.83
1551.864	416.19
1570.199	403.1
1588.464	380.19
1606.657	362.1
1624.78	353.65
1642.834	354.83
1660.817	361.28
1678.732	361.38
1696.577	349.83
1714.355	332.56
1732.064	312.92
1749.705	294.28
1767.28	282.56
1784.787	278.92
1802.228	271.74
1819.603	256.74
1836.913	244.65
1854.156	241.01
1871.335	243.1
1888.449	244.28
1905.499	244.92
1922.485	247.1
1939.408	243.1
1956.267	231.1
1973.063	211.38
1989.797	195.92
2006.469	188.56
2023.078	182.01
2039.627	173.83
2056.114	173.74
2072.54	175.56
2088.906	175.83
2105.211	167.47
2121.457	159.56
2137.643	149.83
2153.77	142.01
2169.838	134.19
2185.848	126.74
2201.799	122.37
2217.693	119.38
2233.529	118.1
2249.307	114.01
2265.029	108.83
2280.694	104.56
2296.302	100.19
2311.854	110.92
2327.351	124.01
2342.792	116.47
2358.178	87.19
2373.508	77.38
2388.785	75.65
2404.007	73.56
2419.174	71.19
2434.289	68.92
2449.349	68.01
2464.356	64.38
2479.311	61.28
2494.213	57.74
2509.062	56.1
2523.859	55.19
2538.605	52.56
2553.299	53.01
2567.941	52.65
2582.533	51.28
2597.073	48.38
2611.564	42.19
2626.004	35.28
2640.394	29.1
2654.734	27.28
2669.025	25.56
2683.266	24.19
2697.458	20.65
2711.602	19.56
2725.697	18.65
2739.744	18.19
2753.743	16.38
2767.695	12.65
2781.598	9.1
2795.455	8.65
2809.264	9.83
2823.026	9.28
2836.742	7.74
2850.412	5.01
2864.035	3.74
2877.613	1.47
2891.145	-1.99
2904.631	-4.44
2918.073	-6.44
2931.469	-8.08
2944.821	-9.99
2958.128	-11.26
2971.39	-10.81
2984.609	-11.35
2997.784	-12.99
3010.915	-16.53
3024.002	-18.81
3037.046	-20.99
3050.048	-20.44
3063.006	-19.35
3075.922	-19.9
3088.795	-20.9
3101.627	-22.72
3114.416	-24.17
3127.163	-27.53
3139.869	-30.08
3152.533	-30.26
3165.157	-28.99
3177.739	-28.53
3190.28	-29.17
3202.781	-28.9
3215.241	-29.26
3227.661	-30.9
3240.041	-34.53
3252.382	-36.08
3264.682	-37.26
3276.943	-36.44
3289.165	-34.44
3301.348	-34.9
3313.492	-34.81
3325.597	-35.9
3337.663	-37.26
3349.691	-38.72
3361.681	-40.99
3373.633	-41.99
3385.547	-42.08
3397.424	-40.81
3409.263	-41.08
3421.065	-40.81
3432.829	-39.26
3444.557	-39.08
3456.247	-38.08
3467.902	-38.72
3479.519	-41.44
3491.101	-43.81
3502.646	-43.53
3514.155	-42.81
3525.629	-41.81
3537.067	-41.44
3548.469	-40.99
3559.837	-42.26
3571.169	-43.72
3582.466	-44.26
3593.728	-44.35
3604.956	-44.99
3616.149	-44.62
3627.307	-44.81
3638.432	-43.44
3649.523	-44.17
3660.579	-45.44
3671.602	-47.81
3682.591	-47.99
3693.547	-46.44
3704.47	-46.17
3715.359	-45.26
3726.216	-46.08
3737.039	-45.81
3747.83	-46.35
3758.589	-45.81
3769.315	-46.9
3780.008	-50.72
3790.67	-50.44
3801.299	-46.53
3811.897	-44.08
3822.463	-44.72
3832.998	-46.72
3843.501	-47.99
3853.973	-48.72
3864.414	-42.62
3874.823	-17.35
3885.202	-10.17
3895.55	-19.72
3905.868	-42.17
3916.155	-46.53
3926.411	-46.99
3936.638	-48.35
3946.834	-48.53
3957	-45.81
3967.137	-42.9
3977.244	-42.08
3987.321	-42.53
3997.369	-44.08
4007.388	-46.17
4017.377	-47.35
4027.338	-47.99
4037.269	-46.17
4047.172	-43.81
4057.046	-41.99
4066.891	-41.81
4076.708	-43.08
4086.497	-45.08
4096.257	-33.44
4105.989	-11.26
4115.694	-14.08
4125.37	-33.35
4135.019	-51.51
4142.237	-49.46

File: Alu-BS-108 30s,I=1, BC=3, 1sta _RamanShift_3.txt
Data from Alu-BS-108 30s,I=1, BC=3, 1sta _RamanShift_3.txt Node

Date: Thu Aug 24 13:52:51 IDT 2017
User: aro
Spectrometer: QEPB0276
Trigger mode: 0
Integration Time (sec): 3.000000E1
Scans to average: 1
Electric dark correction enabled: true
Nonlinearity correction enabled: false
Boxcar width: 5
XAxis mode: Raman Shifts
Number of Pixels in Spectrum: 1044
>>>>>Begin Spectral Data<<<<<
160.701	177.92
184.826	592.15
208.845	1051.8
232.758	1440.52
256.565	1560.34
280.267	1662.34
303.865	1753.43
327.359	1823.52
350.751	1907.43
374.04	2006.25
397.228	2284.8
420.315	2337.89
443.302	2275.61
466.189	1945.7
488.978	1754.25
511.668	1480.25
534.261	1194.34
556.756	1039.8
579.155	991.43
601.459	963.98
623.667	993.34
645.781	985.8
667.8	945.34
689.726	822.34
711.56	789.8
733.301	804.8
754.951	827.07
776.509	859.25
797.977	859.43
819.355	841.8
840.644	790.7
861.844	737.16
882.955	690.43
903.979	663.89
924.916	649.52
945.766	639.07
966.529	624.52
987.208	610.52
1007.801	614.98
1028.309	625.34
1048.734	633.7
1069.075	627.25
1089.333	614.07
1109.509	592.52
1129.602	570.43
1149.614	563.07
1169.545	563.25
1189.395	559.89
1209.165	555.43
1228.856	551.34
1248.467	536.25
1268	510.25
1287.455	497.34
1306.832	498.07
1326.132	492.34
1345.354	475.98
1364.501	453.98
1383.572	434.7
1402.567	420.34
1421.487	416.43
1440.333	422.89
1459.104	427.34
1477.802	425.98
1496.426	423.43
1514.978	418.98
1533.457	412.8
1551.864	406.25
1570.199	393.89
1588.464	369.98
1606.657	353.25
1624.78	344.7
1642.834	344.52
1660.817	347.7
1678.732	348.8
1696.577	338.52
1714.355	323.8
1732.064	304.98
1749.705	287.7
1767.28	275.98
1784.787	270.16
1802.228	262.34
1819.603	247.89
1836.913	236.25
1854.156	233.98
1871.335	234.8
1888.449	238.25
1905.499	240.34
1922.485	240.98
1939.408	235.25
1956.267	220.43
1973.063	201.89
1989.797	188.16
2006.469	182.52
2023.078	176.8
2039.627	169.8
2056.114	168.43
2072.54	169.34
2088.906	168.98
2105.211	161.8
2121.457	155.16
2137.643	148.07
2153.77	139.07
2169.838	130.89
2185.848	122.25
2201.799	117.7
2217.693	115.7
2233.529	113.7
2249.307	108.25
2265.029	102.25
2280.694	99.7
2296.302	96.89
2311.854	107.43
2327.351	119.98
2342.792	114.07
2358.178	84.34
2373.508	74.34
2388.785	72.7
2404.007	68.7
2419.174	65.34
2434.289	62.25
2449.349	61.8
2464.356	59.98
2479.311	58.25
2494.213	56.07
2509.062	54.89
2523.859	52.61
2538.605	49.89
2553.299	47.34
2567.941	45.34
2582.533	43.61
2597.073	41.61
2611.564	38.8
2626.004	34.89
2640.394	30.07
2654.734	27.25
2669.025	23.34
2683.266	19.61
2697.458	16.07
2711.602	15.07
2725.697	14.16
2739.744	15.98
2753.743	16.7
2767.695	13.07
2781.598	9.34
2795.455	5.7
2809.264	4.61
2823.026	3.7
2836.742	2.8
2850.412	1.8
2864.035	2.7
2877.613	1.61
2891.145	-2.66
2904.631	-8.39
2918.073	-11.57
2931.469	-12.84
2944.821	-14.2
2958.128	-14.66
2971.39	-14.48
2984.609	-13.66
2997.784	-14.2
3010.915	-17.2
3024.002	-19.39
3037.046	-22.75
3050.048	-23.75
3063.006	-24.75
3075.922	-25.02
3088.795	-25.11
3101.627	-25.2
3114.416	-24.93
3127.163	-26.3
3139.869	-27.75
3152.533	-29.2
3165.157	-27.66
3177.739	-29.02
3190.28	-30.39
3202.781	-32.57
3215.241	-32.66
3227.661	-33.39
3240.041	-36.2
3252.382	-36.11
3264.682	-38.39
3276.943	-38.02
3289.165	-37.66
3301.348	-37.66
3313.492	-36.57
3325.597	-36.66
3337.663	-37.3
3349.691	-39.02
3361.681	-41.75
3373.633	-43.84
3385.547	-43.84
3397.424	-35.39
3409.263	-34.48
3421.065	-39.11
3432.829	-41.39
3444.557	-42.02
3456.247	-42.3
3467.902	-42.48
3479.519	-45.2
3491.101	-46.93
3502.646	-46.3
3514.155	-45.2
3525.629	-43.48
3537.067	-43.66
3548.469	-43.93
3559.837	-44.3
3571.169	-45.39
3582.466	-46.02
3593.728	-47.11
3604.956	-47.02
3616.149	-45.93
3627.307	-46.57
3638.432	-45.57
3649.523	-45.57
3660.579	-45.66
3671.602	-45.84
3682.591	-46.48
3693.547	-46.2
3704.47	-48.75
3715.359	-49.57
3726.216	-48.66
3737.039	-47.3
3747.83	-45.39
3758.589	-45.57
3769.315	-46.66
3780.008	-51.2
3790.67	-53.2
3801.299	-51.66
3811.897	-49.02
3822.463	-49.11
3832.998	-49.39
3843.501	-48.11
3853.973	-46.75
3864.414	-40.84
3874.823	-17.3
3885.202	-11.93
3895.55	-20.57
3905.868	-43.93
3916.155	-49.02
3926.411	-50.57
3936.638	-50.02
3946.834	-50.11
3957	-47.02
3967.137	-45.48
3977.244	-45.2
3987.321	-45.84
3997.369	-46.84
4007.388	-49.75
4017.377	-50.2
4027.338	-50.02
4037.269	-47.84
4047.172	-47.11
4057.046	-46.39
4066.891	-46.39
4076.708	-46.48
4086.497	-48.11
4096.257	-36.11
4105.989	-13.84
4115.694	-14.93
4125.37	-33.11
4135.019	-51.31
4142.237	-50.08

File: Alu-BS-BLANK 30s,I=1, BC=3, 1sta _RamanShift_1.txt
Data from Alu-BS-BLANK 30s,I=1, BC=3, 1sta _RamanShift_1.txt Node

Date: Thu Aug 24 13:40:21 IDT 2017
User: aro
Spectrometer: QEPB0276
Trigger mode: 0
Integration Time (sec): 3.000000E1
Scans to average: 1
Electric dark correction enabled: true
Nonlinearity correction enabled: false
Boxcar width: 5
XAxis mode: Raman Shifts
Number of Pixels in Spectrum: 1044
>>>>>Begin Spectral Data<<<<<
160.701	182.58
184.826	560.95
208.845	971.48
232.758	1311.84
256.565	1413.84
280.267	1522.02
303.865	1624.3
327.359	1713.39
350.751	1824.75
374.04	1951.57
397.228	2298.75
420.315	2370.39
443.302	2298.66
466.189	1903.93
488.978	1666.3
511.668	1328.02
534.261	970.75
556.756	774.57
579.155	718.2
601.459	695.11
623.667	737.66
645.781	731.11
667.8	684.75
689.726	550.3
711.56	515.57
733.301	542.66
754.951	574.11
776.509	617.84
797.977	626.3
819.355	613.2
840.644	552.75
861.844	482.84
882.955	432.57
903.979	404.57
924.916	392.66
945.766	386.93
966.529	379.3
987.208	374.02
1007.801	380.48
1028.309	398.66
1048.734	414.11
1069.075	417.2
1089.333	401.66
1109.509	378.93
1129.602	360.48
1149.614	358.57
1169.545	363.39
1189.395	368.11
1209.165	369.11
1228.856	367.48
1248.467	351.02
1268	330.66
1287.455	320.02
1306.832	322.2
1326.132	323.39
1345.354	315.3
1364.501	305.75
1383.572	296.02
1402.567	285.02
1421.487	281.2
1440.333	293.57
1459.104	299.11
1477.802	299.84
1496.426	297.39
1514.978	296.11
1533.457	295.57
1551.864	293.2
1570.199	284.2
1588.464	261.11
1606.657	248.02
1624.78	243.39
1642.834	246.57
1660.817	253.02
1678.732	255.02
1696.577	249.02
1714.355	238.57
1732.064	221.75
1749.705	206.48
1767.28	198.02
1784.787	193.93
1802.228	185.2
1819.603	170.48
1836.913	160.2
1854.156	156.66
1871.335	157.66
1888.449	162.84
1905.499	168.02
1922.485	170.02
1939.408	164.84
1956.267	152.48
1973.063	137.11
1989.797	126.2
2006.469	122.11
2023.078	118.11
2039.627	113.75
2056.114	113.3
2072.54	118.48
2088.906	119.39
2105.211	112.93
2121.457	104.48
2137.643	97.93
2153.77	91.75
2169.838	83.93
2185.848	78.75
2201.799	75.84
2217.693	73.93
2233.529	72.48
2249.307	69.66
2265.029	65.48
2280.694	62.2
2296.302	58.48
2311.854	71.39
2327.351	91.02
2342.792	85.3
2358.178	54.02
2373.508	43.2
2388.785	42.3
2404.007	39.39
2419.174	36.57
2434.289	33.11
2449.349	30.02
2464.356	28.02
2479.311	27.57
2494.213	26.02
2509.062	27.48
2523.859	25.93
2538.605	23.39
2553.299	22.48
2567.941	21.57
2582.533	18.57
2597.073	15.2
2611.564	11.84
2626.004	9.2
2640.394	5.2
2654.734	3.75
2669.025	1.93
2683.266	1.2
2697.458	-1.98
2711.602	-2.8
2725.697	-2.34
2739.744	-1.43
2753.743	-3.98
2767.695	-9.16
2781.598	-10.34
2795.455	-11.16
2809.264	-9.25
2823.026	-8.8
2836.742	-9.61
2850.412	-12.52
2864.035	-12.89
2877.613	-14.98
2891.145	-18.61
2904.631	-22.25
2918.073	-24.43
2931.469	-23.7
2944.821	-24.98
2958.128	-23.7
2971.39	-24.8
2984.609	-26.25
2997.784	-29.8
3010.915	-32.7
3024.002	-34.52
3037.046	-35.52
3050.048	-34.89
3063.006	-35.43
3075.922	-36.07
3088.795	-36.8
3101.627	-38.43
3114.416	-39.89
3127.163	-41.16
3139.869	-43.16
3152.533	-42.52
3165.157	-42.34
3177.739	-42.43
3190.28	-43.8
3202.781	-44.43
3215.241	-45.98
3227.661	-47.16
3240.041	-48.25
3252.382	-48.25
3264.682	-47.7
3276.943	-47.16
3289.165	-46.7
3301.348	-49.52
3313.492	-50.89
3325.597	-52.61
3337.663	-51.43
3349.691	-51.89
3361.681	-52.07
3373.633	-52.8
3385.547	-53.16
3397.424	-52.7
3409.263	-54.16
3421.065	-54.61
3432.829	-54.89
3444.557	-54.07
3456.247	-53.07
3467.902	-51.89
3479.519	-52.8
3491.101	-54.43
3502.646	-54.7
3514.155	-56.8
3525.629	-57.89
3537.067	-58.34
3548.469	-57.34
3559.837	-55.89
3571.169	-54.43
3582.466	-55.16
3593.728	-55.52
3604.956	-56.43
3616.149	-56.43
3627.307	-57.89
3638.432	-58.07
3649.523	-59.07
3660.579	-60.16
3671.602	-60.8
3682.591	-60.16
3693.547	-58.89
3704.47	-58.89
3715.359	-59.98
3726.216	-60.8
3737.039	-60.43
3747.83	-58.89
3758.589	-59.43
3769.315	-60.25
3780.008	-64.43
3790.67	-63.52
3801.299	-60.7
3811.897	-57.7
3822.463	-59.34
3832.998	-60.8
3843.501	-60.52
3853.973	-60.52
3864.414	-53.07
3874.823	-16.7
3885.202	-7.7
3895.55	-19.25
3905.868	-53.61
3916.155	-58.25
3926.411	-59.34
3936.638	-59.98
3946.834	-61.16
3957	-59.98
3967.137	-59.25
3977.244	-59.25
3987.321	-59.43
3997.369	-59.52
4007.388	-59.98
4017.377	-60.16
4027.338	-60.16
4037.269	-59.89
4047.172	-58.7
4057.046	-58.34
4066.891	-58.8
4076.708	-61.07
4086.497	-62.25
4096.257	-42.98
4105.989	-8.8
4115.694	-8.89
4125.37	-35.25
4135.019	-60.81
4142.237	-59.42