Folder: Water/Data/Raman/2017-08-24 - Glass, alluminum 108/Aluminum II [full set]

File: Alu-BS-1-2 30s,I=1, BC=3, 1sta _RamanShift_1.txt
Data from Alu-BS-1-2 30s,I=1, BC=3, 1sta _RamanShift_1.txt Node

Date: Thu Aug 24 13:45:51 IDT 2017
User: aro
Spectrometer: QEPB0276
Trigger mode: 0
Integration Time (sec): 3.000000E1
Scans to average: 1
Electric dark correction enabled: true
Nonlinearity correction enabled: false
Boxcar width: 5
XAxis mode: Raman Shifts
Number of Pixels in Spectrum: 1044
>>>>>Begin Spectral Data<<<<<
160.701	182.42
184.826	535.85
208.845	918.48
232.758	1241.2
256.565	1339.75
280.267	1435.75
303.865	1521.57
327.359	1601.93
350.751	1704.39
374.04	1822.57
397.228	2136.48
420.315	2198.48
443.302	2137.2
466.189	1775.2
488.978	1560.66
511.668	1252.3
534.261	923.75
556.756	747.57
579.155	695.02
601.459	672.93
623.667	714.48
645.781	709.84
667.8	667.57
689.726	536.84
711.56	505.93
733.301	529.2
754.951	551.39
776.509	587.75
797.977	591.66
819.355	581.57
840.644	526.93
861.844	465.48
882.955	415.48
903.979	388.75
924.916	376.48
945.766	370.3
966.529	361.39
987.208	353.2
1007.801	360.2
1028.309	374.93
1048.734	388.3
1069.075	389.66
1089.333	375.66
1109.509	353.11
1129.602	333.39
1149.614	328.84
1169.545	336.48
1189.395	339.11
1209.165	341.57
1228.856	339.39
1248.467	326.66
1268	303.57
1287.455	291.84
1306.832	291.48
1326.132	292.57
1345.354	289.57
1364.501	281.3
1383.572	270.02
1402.567	257.66
1421.487	253.11
1440.333	259.39
1459.104	266.93
1477.802	268.66
1496.426	269.93
1514.978	270.2
1533.457	270.75
1551.864	272.02
1570.199	260.93
1588.464	240.3
1606.657	227.75
1624.78	223.93
1642.834	224.75
1660.817	229.57
1678.732	230.84
1696.577	224.75
1714.355	212.84
1732.064	197.39
1749.705	183.48
1767.28	178.39
1784.787	177.39
1802.228	172.48
1819.603	159.3
1836.913	147.2
1854.156	140.93
1871.335	140.75
1888.449	143.75
1905.499	146.2
1922.485	148.39
1939.408	147.02
1956.267	138.84
1973.063	125.48
1989.797	113.02
2006.469	109.39
2023.078	103.39
2039.627	97.48
2056.114	97.11
2072.54	101.57
2088.906	103.2
2105.211	100.2
2121.457	94.02
2137.643	86.48
2153.77	78.2
2169.838	69.48
2185.848	63.2
2201.799	60.11
2217.693	59.48
2233.529	58.84
2249.307	55.84
2265.029	51.84
2280.694	49.57
2296.302	47.2
2311.854	59.2
2327.351	75.3
2342.792	68.48
2358.178	37.11
2373.508	25.66
2388.785	26.11
2404.007	22.48
2419.174	19.48
2434.289	17.66
2449.349	15.75
2464.356	13.57
2479.311	10.84
2494.213	9.48
2509.062	10.66
2523.859	9.75
2538.605	7.66
2553.299	7.2
2567.941	5.02
2582.533	3.02
2597.073	1.02
2611.564	-1.52
2626.004	-4.07
2640.394	-7.43
2654.734	-10.07
2669.025	-12.34
2683.266	-14.25
2697.458	-17.16
2711.602	-18.7
2725.697	-18.7
2739.744	-16.43
2753.743	-15.98
2767.695	-17.89
2781.598	-21.52
2795.455	-22.8
2809.264	-23.8
2823.026	-24.07
2836.742	-24.7
2850.412	-24.7
2864.035	-24.7
2877.613	-25.43
2891.145	-30.34
2904.631	-34.43
2918.073	-36.89
2931.469	-36.61
2944.821	-37.43
2958.128	-37.8
2971.39	-38.61
2984.609	-38.7
2997.784	-40.07
3010.915	-41.98
3024.002	-43.98
3037.046	-45.61
3050.048	-45.07
3063.006	-45.7
3075.922	-46.25
3088.795	-47.61
3101.627	-49.8
3114.416	-51.07
3127.163	-51.7
3139.869	-51.43
3152.533	-51.98
3165.157	-51.89
3177.739	-52.7
3190.28	-53.61
3202.781	-53.52
3215.241	-55.61
3227.661	-56.98
3240.041	-59.43
3252.382	-58.98
3264.682	-58.98
3276.943	-57.07
3289.165	-57.16
3301.348	-57.25
3313.492	-56.52
3325.597	-57.89
3337.663	-60.25
3349.691	-61.52
3361.681	-63.61
3373.633	-64.52
3385.547	-63.8
3397.424	-61.43
3409.263	-59.89
3421.065	-60.07
3432.829	-59.61
3444.557	-60.61
3456.247	-61.98
3467.902	-63.34
3479.519	-65.34
3491.101	-65.61
3502.646	-64.16
3514.155	-63.25
3525.629	-62.61
3537.067	-62.98
3548.469	-62.52
3559.837	-63.52
3571.169	-64.16
3582.466	-64.43
3593.728	-65.61
3604.956	-64.98
3616.149	-65.43
3627.307	-66.07
3638.432	-67.8
3649.523	-68.89
3660.579	-69.61
3671.602	-69.34
3682.591	-67.89
3693.547	-66.52
3704.47	-65.8
3715.359	-67.43
3726.216	-68.43
3737.039	-69.8
3747.83	-70.07
3758.589	-69.52
3769.315	-68.89
3780.008	-72.61
3790.67	-71.98
3801.299	-69.07
3811.897	-67.52
3822.463	-69.7
3832.998	-72.43
3843.501	-71.7
3853.973	-69.89
3864.414	-54.8
3874.823	5.66
3885.202	21.2
3895.55	-0.34
3905.868	-58.98
3916.155	-69.34
3926.411	-71.61
3936.638	-71.7
3946.834	-69.8
3957	-66.34
3967.137	-64.25
3977.244	-65.16
3987.321	-66.89
3997.369	-67.89
4007.388	-69.43
4017.377	-70.52
4027.338	-71.43
4037.269	-69.16
4047.172	-67.25
4057.046	-65.7
4066.891	-66.07
4076.708	-67.61
4086.497	-68.89
4096.257	-44.25
4105.989	1.3
4115.694	0.2
4125.37	-38.52
4135.019	-73.25
4142.237	-72.42

File: Alu-BS-1-2 30s,I=1, BC=3, 1sta _RamanShift_2.txt
Data from Alu-BS-1-2 30s,I=1, BC=3, 1sta _RamanShift_2.txt Node

Date: Thu Aug 24 13:46:21 IDT 2017
User: aro
Spectrometer: QEPB0276
Trigger mode: 0
Integration Time (sec): 3.000000E1
Scans to average: 1
Electric dark correction enabled: true
Nonlinearity correction enabled: false
Boxcar width: 5
XAxis mode: Raman Shifts
Number of Pixels in Spectrum: 1044
>>>>>Begin Spectral Data<<<<<
160.701	180.75
184.826	531.35
208.845	912.89
232.758	1232.89
256.565	1332.52
280.267	1431.61
303.865	1519.7
327.359	1596.16
350.751	1696.98
374.04	1819.8
397.228	2136.8
420.315	2205.61
443.302	2136.25
466.189	1772.8
488.978	1556.07
511.668	1246.25
534.261	914.43
556.756	735.52
579.155	684.7
601.459	666.16
623.667	710.98
645.781	709.43
667.8	667.25
689.726	537.98
711.56	502.89
733.301	523.61
754.951	547.43
776.509	585.07
797.977	589.07
819.355	574.98
840.644	520.61
861.844	459.34
882.955	412.16
903.979	387.52
924.916	376.52
945.766	370.43
966.529	361.07
987.208	353.61
1007.801	355.34
1028.309	371.52
1048.734	385.8
1069.075	387.98
1089.333	373.98
1109.509	352.89
1129.602	335.07
1149.614	330.34
1169.545	333.8
1189.395	336.43
1209.165	334.8
1228.856	332.25
1248.467	316.16
1268	297.34
1287.455	290.25
1306.832	295.43
1326.132	297.52
1345.354	289.43
1364.501	279.07
1383.572	266.43
1402.567	253.52
1421.487	247.89
1440.333	252.61
1459.104	259.89
1477.802	264.7
1496.426	268.61
1514.978	270.07
1533.457	269.52
1551.864	267.52
1570.199	257.7
1588.464	235.8
1606.657	225.25
1624.78	220.61
1642.834	222.52
1660.817	226.61
1678.732	230.34
1696.577	225.8
1714.355	215.25
1732.064	197.07
1749.705	180.52
1767.28	172.8
1784.787	172.25
1802.228	169.61
1819.603	157.7
1836.913	146.16
1854.156	139.52
1871.335	138.61
1888.449	139.98
1905.499	142.98
1922.485	147.61
1939.408	144.7
1956.267	135.25
1973.063	122.16
1989.797	111.89
2006.469	107.25
2023.078	100.8
2039.627	94.7
2056.114	94.98
2072.54	99.43
2088.906	100.98
2105.211	95.34
2121.457	89.61
2137.643	81.98
2153.77	73.98
2169.838	66.43
2185.848	60.7
2201.799	57.07
2217.693	58.16
2233.529	57.07
2249.307	54.89
2265.029	50.61
2280.694	47.43
2296.302	43.89
2311.854	55.07
2327.351	72.7
2342.792	67.34
2358.178	35.89
2373.508	25.43
2388.785	23.8
2404.007	20.43
2419.174	17.16
2434.289	13.43
2449.349	11.43
2464.356	9.25
2479.311	8.7
2494.213	7.7
2509.062	6.52
2523.859	6.16
2538.605	4.16
2553.299	4.98
2567.941	3.43
2582.533	2.52
2597.073	-0.39
2611.564	-2.66
2626.004	-6.75
2640.394	-12.2
2654.734	-14.93
2669.025	-15.57
2683.266	-15.93
2697.458	-17.66
2711.602	-18.3
2725.697	-17.66
2739.744	-17.3
2753.743	-19.66
2767.695	-22.84
2781.598	-24.93
2795.455	-26.11
2809.264	-26.48
2823.026	-26.39
2836.742	-25.75
2850.412	-27.39
2864.035	-27.48
2877.613	-28.93
2891.145	-33.02
2904.631	-38.57
2918.073	-41.84
2931.469	-41.84
2944.821	-40.93
2958.128	-38.93
2971.39	-39.02
2984.609	-40.2
2997.784	-41.84
3010.915	-43.93
3024.002	-47.66
3037.046	-50.84
3050.048	-51.11
3063.006	-49.93
3075.922	-48.2
3088.795	-47.84
3101.627	-51.2
3114.416	-51.2
3127.163	-52.93
3139.869	-54.3
3152.533	-56.2
3165.157	-56.84
3177.739	-56.57
3190.28	-55.2
3202.781	-53.75
3215.241	-55.84
3227.661	-57.11
3240.041	-61.39
3252.382	-62.39
3264.682	-63.39
3276.943	-62.48
3289.165	-60.3
3301.348	-60.11
3313.492	-60.11
3325.597	-60.84
3337.663	-61.93
3349.691	-63.84
3361.681	-66.11
3373.633	-66.84
3385.547	-66.11
3397.424	-64.66
3409.263	-64.02
3421.065	-63.93
3432.829	-62.93
3444.557	-63.93
3456.247	-64.48
3467.902	-65.48
3479.519	-66.66
3491.101	-66.39
3502.646	-65.48
3514.155	-65.3
3525.629	-66.02
3537.067	-65.57
3548.469	-68.02
3559.837	-68.3
3571.169	-68.57
3582.466	-67.48
3593.728	-67.2
3604.956	-67.2
3616.149	-66.57
3627.307	-68.48
3638.432	-69.3
3649.523	-70.84
3660.579	-71.84
3671.602	-71.2
3682.591	-70.75
3693.547	-68.3
3704.47	-68.66
3715.359	-69.84
3726.216	-71.57
3737.039	-72.2
3747.83	-72.93
3758.589	-73.3
3769.315	-73.57
3780.008	-75.3
3790.67	-74.84
3801.299	-72.3
3811.897	-69.75
3822.463	-70.3
3832.998	-72.02
3843.501	-71.2
3853.973	-69.84
3864.414	-55.66
3874.823	3.98
3885.202	18.61
3895.55	-2.75
3905.868	-59.84
3916.155	-69.48
3926.411	-70.66
3936.638	-72.2
3946.834	-71.3
3957	-70.57
3967.137	-69.57
3977.244	-71.48
3987.321	-70.3
3997.369	-70.02
4007.388	-71.2
4017.377	-71.84
4027.338	-72.75
4037.269	-71.3
4047.172	-70.48
4057.046	-69.66
4066.891	-69.93
4076.708	-71.66
4086.497	-72.84
4096.257	-47.11
4105.989	-1.48
4115.694	-3.11
4125.37	-40.11
4135.019	-74.19
4142.237	-72.25

File: Alu-BS-1-2 30s,I=1, BC=3, 1sta _RamanShift_3.txt
Data from Alu-BS-1-2 30s,I=1, BC=3, 1sta _RamanShift_3.txt Node

Date: Thu Aug 24 13:46:51 IDT 2017
User: aro
Spectrometer: QEPB0276
Trigger mode: 0
Integration Time (sec): 3.000000E1
Scans to average: 1
Electric dark correction enabled: true
Nonlinearity correction enabled: false
Boxcar width: 5
XAxis mode: Raman Shifts
Number of Pixels in Spectrum: 1044
>>>>>Begin Spectral Data<<<<<
160.701	183.08
184.826	534.85
208.845	919.11
232.758	1240.84
256.565	1342.02
280.267	1438.57
303.865	1529.39
327.359	1607.66
350.751	1710.39
374.04	1829.75
397.228	2153.57
420.315	2214.48
443.302	2149.2
466.189	1784.84
488.978	1567.2
511.668	1254.39
534.261	923.66
556.756	744.02
579.155	692.11
601.459	668.93
623.667	714.39
645.781	714.3
667.8	673.2
689.726	542.57
711.56	512.39
733.301	530.75
754.951	552.39
776.509	590.57
797.977	591.75
819.355	577.3
840.644	522.48
861.844	464.3
882.955	415.84
903.979	390.11
924.916	379.48
945.766	372.84
966.529	364.02
987.208	357.3
1007.801	362.11
1028.309	377.02
1048.734	389.39
1069.075	390.57
1089.333	380.48
1109.509	358.3
1129.602	338.57
1149.614	333.2
1169.545	338.84
1189.395	342.93
1209.165	343.2
1228.856	341.3
1248.467	326.3
1268	307.3
1287.455	298.48
1306.832	300.57
1326.132	299.57
1345.354	293.3
1364.501	284.11
1383.572	273.39
1402.567	261.57
1421.487	257.2
1440.333	263.66
1459.104	269.48
1477.802	271.3
1496.426	274.39
1514.978	274.2
1533.457	274.84
1551.864	277.39
1570.199	269.3
1588.464	245.75
1606.657	231.66
1624.78	227.02
1642.834	228.48
1660.817	234.02
1678.732	236.2
1696.577	229.93
1714.355	218.66
1732.064	200.57
1749.705	186.3
1767.28	178.48
1784.787	178.57
1802.228	173.84
1819.603	161.48
1836.913	148.57
1854.156	143.02
1871.335	141.57
1888.449	145.11
1905.499	146.93
1922.485	149.84
1939.408	148.2
1956.267	139.84
1973.063	125.02
1989.797	114.57
2006.469	107.84
2023.078	103.39
2039.627	98.39
2056.114	97.11
2072.54	100.48
2088.906	100.84
2105.211	97.3
2121.457	90.93
2137.643	85.93
2153.77	77.66
2169.838	70.75
2185.848	64.02
2201.799	60.75
2217.693	59.11
2233.529	57.11
2249.307	54.75
2265.029	51.84
2280.694	49.11
2296.302	46.57
2311.854	58.39
2327.351	74.2
2342.792	67.66
2358.178	34.93
2373.508	23.3
2388.785	21.11
2404.007	18.11
2419.174	16.75
2434.289	16.57
2449.349	15.2
2464.356	13.2
2479.311	9.48
2494.213	6.57
2509.062	5.48
2523.859	4.84
2538.605	4.39
2553.299	4.57
2567.941	2.93
2582.533	0.39
2597.073	-2.34
2611.564	-5.07
2626.004	-8.98
2640.394	-12.34
2654.734	-14.16
2669.025	-15.16
2683.266	-16.25
2697.458	-18.89
2711.602	-19.8
2725.697	-19.98
2739.744	-18.7
2753.743	-19.61
2767.695	-22.43
2781.598	-24.34
2795.455	-26.89
2809.264	-26.61
2823.026	-27.25
2836.742	-27.7
2850.412	-30.61
2864.035	-30.61
2877.613	-31.43
2891.145	-33.8
2904.631	-37.34
2918.073	-39.89
2931.469	-40.7
2944.821	-42.07
2958.128	-40.52
2971.39	-41.7
2984.609	-43.07
2997.784	-44.8
3010.915	-46.25
3024.002	-47.61
3037.046	-50.25
3050.048	-49.43
3063.006	-49.43
3075.922	-50.34
3088.795	-52.61
3101.627	-55.7
3114.416	-56.07
3127.163	-56.52
3139.869	-56.25
3152.533	-57.25
3165.157	-56.34
3177.739	-55.8
3190.28	-55.8
3202.781	-56.43
3215.241	-57.98
3227.661	-59.89
3240.041	-62.07
3252.382	-63.98
3264.682	-65.43
3276.943	-64.07
3289.165	-62.98
3301.348	-61.8
3313.492	-61.7
3325.597	-63.25
3337.663	-63.61
3349.691	-65.8
3361.681	-67.25
3373.633	-68.16
3385.547	-67.61
3397.424	-66.25
3409.263	-66.52
3421.065	-65.89
3432.829	-65.61
3444.557	-65.43
3456.247	-65.43
3467.902	-65.98
3479.519	-67.61
3491.101	-68.8
3502.646	-69.52
3514.155	-69.07
3525.629	-68.16
3537.067	-66.52
3548.469	-65.89
3559.837	-66.8
3571.169	-68.52
3582.466	-68.98
3593.728	-70.25
3604.956	-71.61
3616.149	-71.16
3627.307	-71.25
3638.432	-70.43
3649.523	-70.34
3660.579	-70.7
3671.602	-71.98
3682.591	-73.52
3693.547	-72.89
3704.47	-73.07
3715.359	-73.7
3726.216	-74.52
3737.039	-73.8
3747.83	-73.43
3758.589	-72.43
3769.315	-72.89
3780.008	-77.25
3790.67	-76.89
3801.299	-74.98
3811.897	-72.43
3822.463	-72.8
3832.998	-73.25
3843.501	-72.34
3853.973	-70.8
3864.414	-56.8
3874.823	2.48
3885.202	16.39
3895.55	-6.7
3905.868	-63.8
3916.155	-71.89
3926.411	-73.16
3936.638	-73.52
3946.834	-72.98
3957	-71.34
3967.137	-70.8
3977.244	-72.34
3987.321	-72.43
3997.369	-71.25
4007.388	-71.07
4017.377	-71.25
4027.338	-72.43
4037.269	-74.07
4047.172	-72.89
4057.046	-71.89
4066.891	-70.8
4076.708	-72.43
4086.497	-73.52
4096.257	-48.07
4105.989	-2.34
4115.694	-3.16
4125.37	-40.98
4135.019	-75.81
4142.237	-74.42

File: Alu-BS-107 30s,I=1, BC=3, 1sta _RamanShift_1.txt
Data from Alu-BS-107 30s,I=1, BC=3, 1sta _RamanShift_1.txt Node

Date: Thu Aug 24 13:48:21 IDT 2017
User: aro
Spectrometer: QEPB0276
Trigger mode: 0
Integration Time (sec): 3.000000E1
Scans to average: 1
Electric dark correction enabled: true
Nonlinearity correction enabled: false
Boxcar width: 5
XAxis mode: Raman Shifts
Number of Pixels in Spectrum: 1044
>>>>>Begin Spectral Data<<<<<
160.701	205.33
184.826	602.5
208.845	1042.05
232.758	1413.05
256.565	1526.68
280.267	1633.23
303.865	1722.68
327.359	1800.05
350.751	1892.86
374.04	2001.68
397.228	2297.14
420.315	2355.05
443.302	2284.86
466.189	1939.77
488.978	1729.23
511.668	1442.14
534.261	1135.59
556.756	970.68
579.155	915.77
601.459	887.5
623.667	921.41
645.781	916.41
667.8	873.86
689.726	753.59
711.56	719.77
733.301	738.14
754.951	756.68
776.509	788.05
797.977	785.32
819.355	771.05
840.644	716.77
861.844	658.68
882.955	611.05
903.979	581.59
924.916	570.05
945.766	564.05
966.529	550.77
987.208	539.95
1007.801	542.95
1028.309	555.77
1048.734	561.77
1069.075	561.05
1089.333	548.68
1109.509	526.32
1129.602	504.86
1149.614	497.32
1169.545	502.5
1189.395	504.5
1209.165	504.86
1228.856	499.68
1248.467	480.23
1268	455.14
1287.455	443.59
1306.832	445.77
1326.132	442.95
1345.354	429.86
1364.501	411.05
1383.572	392.77
1402.567	378.5
1421.487	373.5
1440.333	379.95
1459.104	382.68
1477.802	378.95
1496.426	377.32
1514.978	372.41
1533.457	370.59
1551.864	368.23
1570.199	359.41
1588.464	336.05
1606.657	320.32
1624.78	312.59
1642.834	313.86
1660.817	316.77
1678.732	313.32
1696.577	300.14
1714.355	283.5
1732.064	264.05
1749.705	246.23
1767.28	233.41
1784.787	224.95
1802.228	217.5
1819.603	204.95
1836.913	196.41
1854.156	194.05
1871.335	193.77
1888.449	195.05
1905.499	192.59
1922.485	191.23
1939.408	184.32
1956.267	173.95
1973.063	159.5
1989.797	149.5
2006.469	145.95
2023.078	139.32
2039.627	131.41
2056.114	130.59
2072.54	133.05
2088.906	132.23
2105.211	125.5
2121.457	119.68
2137.643	113.23
2153.77	105.86
2169.838	95.77
2185.848	88.68
2201.799	84.5
2217.693	83.05
2233.529	81.86
2249.307	78.14
2265.029	74.14
2280.694	71.05
2296.302	67.23
2311.854	79.59
2327.351	94.86
2342.792	90.05
2358.178	58.95
2373.508	50.32
2388.785	49.95
2404.007	45.95
2419.174	42.14
2434.289	40.41
2449.349	38.59
2464.356	34.77
2479.311	32.86
2494.213	30.41
2509.062	31.05
2523.859	28.32
2538.605	24.68
2553.299	22.95
2567.941	21.41
2582.533	17.95
2597.073	16.23
2611.564	11.23
2626.004	8.14
2640.394	3.23
2654.734	0.32
2669.025	-1.59
2683.266	-3.5
2697.458	-4.95
2711.602	-5.23
2725.697	-4.32
2739.744	-4.14
2753.743	-8.59
2767.695	-14.32
2781.598	-18.41
2795.455	-17.59
2809.264	-16.41
2823.026	-15.68
2836.742	-17.86
2850.412	-19.23
2864.035	-19.05
2877.613	-20.05
2891.145	-24.95
2904.631	-30.41
2918.073	-35.86
2931.469	-37.14
2944.821	-38.23
2958.128	-37.23
2971.39	-36.59
2984.609	-36.77
2997.784	-38.14
3010.915	-42.05
3024.002	-45.32
3037.046	-48.14
3050.048	-48.23
3063.006	-48.86
3075.922	-47.77
3088.795	-46.95
3101.627	-48.05
3114.416	-48.86
3127.163	-51.86
3139.869	-53.68
3152.533	-56.05
3165.157	-57.05
3177.739	-58.41
3190.28	-57.95
3202.781	-56.59
3215.241	-56.5
3227.661	-58.14
3240.041	-60.5
3252.382	-61.77
3264.682	-62.32
3276.943	-62.59
3289.165	-62.77
3301.348	-63.5
3313.492	-62.68
3325.597	-63.14
3337.663	-63.14
3349.691	-65.77
3361.681	-67.5
3373.633	-68.95
3385.547	-68.86
3397.424	-68.41
3409.263	-67.05
3421.065	-64.59
3432.829	-62.77
3444.557	-63.32
3456.247	-63.86
3467.902	-65.41
3479.519	-67.5
3491.101	-69.77
3502.646	-69.68
3514.155	-68.5
3525.629	-66.95
3537.067	-67.59
3548.469	-67.59
3559.837	-68.59
3571.169	-69.05
3582.466	-70.68
3593.728	-72.59
3604.956	-73.23
3616.149	-70.95
3627.307	-71.05
3638.432	-71.05
3649.523	-72.59
3660.579	-73.86
3671.602	-75.05
3682.591	-75.86
3693.547	-74.5
3704.47	-74.59
3715.359	-74.68
3726.216	-75.32
3737.039	-75.68
3747.83	-75.68
3758.589	-75.77
3769.315	-75.23
3780.008	-78.14
3790.67	-78.95
3801.299	-76.68
3811.897	-74.23
3822.463	-74.59
3832.998	-76.32
3843.501	-75.14
3853.973	-72.95
3864.414	-56.59
3874.823	3.68
3885.202	14.41
3895.55	-11.77
3905.868	-67.5
3916.155	-75.14
3926.411	-75.77
3936.638	-75.23
3946.834	-73.95
3957	-71.41
3967.137	-69.86
3977.244	-71.41
3987.321	-72.86
3997.369	-74.5
4007.388	-76.41
4017.377	-75.95
4027.338	-76.86
4037.269	-75.59
4047.172	-73.68
4057.046	-72.59
4066.891	-72.77
4076.708	-73.86
4086.497	-74.32
4096.257	-46.59
4105.989	4.59
4115.694	3.14
4125.37	-40.14
4135.019	-79.28
4142.237	-77.83

File: Alu-BS-107 30s,I=1, BC=3, 1sta _RamanShift_2.txt
Data from Alu-BS-107 30s,I=1, BC=3, 1sta _RamanShift_2.txt Node

Date: Thu Aug 24 13:48:51 IDT 2017
User: aro
Spectrometer: QEPB0276
Trigger mode: 0
Integration Time (sec): 3.000000E1
Scans to average: 1
Electric dark correction enabled: true
Nonlinearity correction enabled: false
Boxcar width: 5
XAxis mode: Raman Shifts
Number of Pixels in Spectrum: 1044
>>>>>Begin Spectral Data<<<<<
160.701	200.75
184.826	593.05
208.845	1022.61
232.758	1385.89
256.565	1498.98
280.267	1597.61
303.865	1687.61
327.359	1763.16
350.751	1858.25
374.04	1972.52
397.228	2273.34
420.315	2329.07
443.302	2260.43
466.189	1913.98
488.978	1705.16
511.668	1411.16
534.261	1105.89
556.756	939.89
579.155	889.34
601.459	862.52
623.667	897.89
645.781	890.52
667.8	844.52
689.726	718.34
711.56	686.8
733.301	706.7
754.951	729.25
776.509	761.8
797.977	762.61
819.355	750.43
840.644	697.7
861.844	641.52
882.955	589.61
903.979	561.7
924.916	548.16
945.766	543.07
966.529	532.34
987.208	522.43
1007.801	524.25
1028.309	538.07
1048.734	545.7
1069.075	543.43
1089.333	529.98
1109.509	507.89
1129.602	486.98
1149.614	480.98
1169.545	484.43
1189.395	484.52
1209.165	480.7
1228.856	481.52
1248.467	467.52
1268	443.43
1287.455	427.16
1306.832	427.8
1326.132	425.8
1345.354	412.25
1364.501	393.98
1383.572	378.43
1402.567	365.89
1421.487	361.43
1440.333	367.25
1459.104	372.16
1477.802	371.43
1496.426	368.07
1514.978	363.25
1533.457	358.98
1551.864	357.43
1570.199	348.89
1588.464	327.25
1606.657	313.43
1624.78	305.52
1642.834	303.34
1660.817	303.98
1678.732	300.43
1696.577	290.25
1714.355	273.8
1732.064	256.34
1749.705	240.16
1767.28	230.43
1784.787	223.7
1802.228	214.61
1819.603	200.07
1836.913	188.34
1854.156	185.98
1871.335	188.61
1888.449	191.89
1905.499	190.34
1922.485	189.07
1939.408	182.89
1956.267	169.52
1973.063	153.43
1989.797	142.34
2006.469	137.07
2023.078	132.43
2039.627	127.61
2056.114	128.16
2072.54	130.89
2088.906	131.16
2105.211	122.43
2121.457	113.8
2137.643	106.34
2153.77	101.07
2169.838	93.25
2185.848	86.8
2201.799	82.16
2217.693	81.61
2233.529	81.16
2249.307	77.8
2265.029	72.25
2280.694	67.98
2296.302	63.34
2311.854	75.16
2327.351	92.07
2342.792	87.7
2358.178	58.07
2373.508	47.89
2388.785	47.25
2404.007	44.16
2419.174	40.61
2434.289	37.61
2449.349	35.43
2464.356	31.98
2479.311	30.34
2494.213	29.52
2509.062	29.89
2523.859	28.07
2538.605	22.8
2553.299	20.7
2567.941	19.16
2582.533	16.98
2597.073	14.98
2611.564	12.43
2626.004	9.34
2640.394	4.98
2654.734	0.52
2669.025	-2.3
2683.266	-5.2
2697.458	-6.84
2711.602	-8.39
2725.697	-6.57
2739.744	-4.75
2753.743	-5.84
2767.695	-10.66
2781.598	-14.39
2795.455	-17.66
2809.264	-18.11
2823.026	-18.11
2836.742	-19.39
2850.412	-20.3
2864.035	-20.11
2877.613	-22.11
2891.145	-25.3
2904.631	-30.2
2918.073	-34.11
2931.469	-34.84
2944.821	-36.39
2958.128	-37.3
2971.39	-38.84
2984.609	-38.93
2997.784	-40.57
3010.915	-42.84
3024.002	-43.57
3037.046	-46.11
3050.048	-46.57
3063.006	-47.2
3075.922	-47.2
3088.795	-48.11
3101.627	-50.48
3114.416	-51.2
3127.163	-53.66
3139.869	-55.39
3152.533	-56.39
3165.157	-55.84
3177.739	-55.75
3190.28	-56.39
3202.781	-56.02
3215.241	-57.75
3227.661	-59.48
3240.041	-61.39
3252.382	-61.66
3264.682	-62.11
3276.943	-62.02
3289.165	-61.39
3301.348	-62.39
3313.492	-62.02
3325.597	-63.66
3337.663	-65.11
3349.691	-66.48
3361.681	-67.2
3373.633	-66.66
3385.547	-65.39
3397.424	-64.75
3409.263	-66.57
3421.065	-67.57
3432.829	-67.57
3444.557	-67.48
3456.247	-66.39
3467.902	-66.02
3479.519	-66.11
3491.101	-67.66
3502.646	-67.75
3514.155	-68.3
3525.629	-66.57
3537.067	-66.39
3548.469	-67.2
3559.837	-67.93
3571.169	-69.66
3582.466	-69.84
3593.728	-69.39
3604.956	-69.39
3616.149	-68.48
3627.307	-69.11
3638.432	-70.75
3649.523	-74.3
3660.579	-75.2
3671.602	-74.02
3682.591	-72.48
3693.547	-70.48
3704.47	-70.84
3715.359	-71.57
3726.216	-73.48
3737.039	-74.2
3747.83	-75.57
3758.589	-75.2
3769.315	-74.93
3780.008	-77.57
3790.67	-77.02
3801.299	-74.57
3811.897	-72.48
3822.463	-73.93
3832.998	-76.02
3843.501	-75.84
3853.973	-73.93
3864.414	-56.75
3874.823	5.34
3885.202	17.89
3895.55	-8.66
3905.868	-65.75
3916.155	-75.2
3926.411	-77.11
3936.638	-77.84
3946.834	-75.66
3957	-72.93
3967.137	-70.3
3977.244	-70.66
3987.321	-70.2
3997.369	-71.3
4007.388	-74.2
4017.377	-75.75
4027.338	-76.66
4037.269	-77.02
4047.172	-74.11
4057.046	-72.48
4066.891	-71.48
4076.708	-71.93
4086.497	-73.48
4096.257	-47.02
4105.989	1.7
4115.694	0.43
4125.37	-40.11
4135.019	-77.08
4142.237	-76.25