Folder: Water/Data/Raman/2017-08-24 - Glass, alluminum 108/Aluminum (part 2)

File: BC108 - 30s - I=1, bc=5_RamanShift_1.txt
Data from BC108 - 30s - I=1, bc=5_RamanShift_1.txt Node

Date: Thu Aug 24 11:53:10 IDT 2017
User: aro
Spectrometer: QEPB0276
Trigger mode: 0
Integration Time (sec): 3.000000E1
Scans to average: 1
Electric dark correction enabled: true
Nonlinearity correction enabled: false
Boxcar width: 5
XAxis mode: Raman Shifts
Number of Pixels in Spectrum: 1044
>>>>>Begin Spectral Data<<<<<
160.701	227.38
184.826	766.38
208.845	1368.56
232.758	1874.92
256.565	2024.1
280.267	2143.47
303.865	2241.56
327.359	2324.1
350.751	2403.74
374.04	2495.83
397.228	2766.38
420.315	2811.47
443.302	2743.56
466.189	2415.92
488.978	2216.92
511.668	1939.83
534.261	1640.38
556.756	1477.74
579.155	1420.1
601.459	1387.56
623.667	1405.28
645.781	1389.65
667.8	1342.28
689.726	1220.38
711.56	1183.74
733.301	1193.74
754.951	1210.01
776.509	1231.92
797.977	1218.01
819.355	1191.01
840.644	1137.74
861.844	1080.19
882.955	1026.1
903.979	986.83
924.916	970.65
945.766	956.83
966.529	931.19
987.208	909.92
1007.801	910.1
1028.309	924.19
1048.734	921.28
1069.075	907.83
1089.333	887.92
1109.509	862.1
1129.602	833.1
1149.614	819.74
1169.545	814.92
1189.395	806.28
1209.165	800.56
1228.856	795.83
1248.467	773.1
1268	738.19
1287.455	714.74
1306.832	714.47
1326.132	711.47
1345.354	691.83
1364.501	663.38
1383.572	632.83
1402.567	609.19
1421.487	600.28
1440.333	603.38
1459.104	608.83
1477.802	607.1
1496.426	608.28
1514.978	603.56
1533.457	589.1
1551.864	572.65
1570.199	551.38
1588.464	523.01
1606.657	500.19
1624.78	484.01
1642.834	483.01
1660.817	490.47
1678.732	493.74
1696.577	481.38
1714.355	459.83
1732.064	432.83
1749.705	405.74
1767.28	387.92
1784.787	383.1
1802.228	373.28
1819.603	351.56
1836.913	334.01
1854.156	329.65
1871.335	334.56
1888.449	337.65
1905.499	340.1
1922.485	339.56
1939.408	332.28
1956.267	311.47
1973.063	284.74
1989.797	265.19
2006.469	254.01
2023.078	244.1
2039.627	237.47
2056.114	236.47
2072.54	240.56
2088.906	241.19
2105.211	231.38
2121.457	216.92
2137.643	203.83
2153.77	195.1
2169.838	183.19
2185.848	172.47
2201.799	164.47
2217.693	162.28
2233.529	158.65
2249.307	151.1
2265.029	144.28
2280.694	136.01
2296.302	128.83
2311.854	137.83
2327.351	151.19
2342.792	144.65
2358.178	113.47
2373.508	102.1
2388.785	98.47
2404.007	96.19
2419.174	93.92
2434.289	90.83
2449.349	85.47
2464.356	79.38
2479.311	78.56
2494.213	76.65
2509.062	76.47
2523.859	75.01
2538.605	75.19
2553.299	74.28
2567.941	70.01
2582.533	64.83
2597.073	58.65
2611.564	54.47
2626.004	47.28
2640.394	44.56
2654.734	40.19
2669.025	37.1
2683.266	30.74
2697.458	27.83
2711.602	24.83
2725.697	25.19
2739.744	25.56
2753.743	23.47
2767.695	18.19
2781.598	15.01
2795.455	13.83
2809.264	13.19
2823.026	11.01
2836.742	8.28
2850.412	8.01
2864.035	5.74
2877.613	1.74
2891.145	-3.26
2904.631	-7.99
2918.073	-9.35
2931.469	-10.81
2944.821	-12.72
2958.128	-15.62
2971.39	-17.44
2984.609	-18.35
2997.784	-20.35
3010.915	-21.99
3024.002	-24.17
3037.046	-26.08
3050.048	-28.17
3063.006	-28.81
3075.922	-30.17
3088.795	-30.99
3101.627	-31.99
3114.416	-31.53
3127.163	-31.9
3139.869	-33.53
3152.533	-34.08
3165.157	-34.53
3177.739	-35.53
3190.28	-37.17
3202.781	-37.72
3215.241	-37.53
3227.661	-38.72
3240.041	-40.35
3252.382	-40.9
3264.682	-40.17
3276.943	-41.81
3289.165	-43.35
3301.348	-44.81
3313.492	-45.62
3325.597	-47.72
3337.663	-48.26
3349.691	-49.17
3361.681	-49.17
3373.633	-51.53
3385.547	-52.72
3397.424	-53.81
3409.263	-53.35
3421.065	-53.17
3432.829	-53.72
3444.557	-53.81
3456.247	-54.53
3467.902	-54.08
3479.519	-52.81
3491.101	-53.08
3502.646	-51.9
3514.155	-51.44
3525.629	-50.53
3537.067	-51.72
3548.469	-52.62
3559.837	-52.53
3571.169	-53.08
3582.466	-52.72
3593.728	-53.53
3604.956	-53.08
3616.149	-53.35
3627.307	-53.44
3638.432	-54.81
3649.523	-57.72
3660.579	-58.9
3671.602	-58.26
3682.591	-59.53
3693.547	-59.35
3704.47	-59.44
3715.359	-58.62
3726.216	-58.53
3737.039	-59.72
3747.83	-58.81
3758.589	-58.44
3769.315	-57.53
3780.008	-57.17
3790.67	-55.44
3801.299	-54.99
3811.897	-55.26
3822.463	-55.44
3832.998	-55.9
3843.501	-55.26
3853.973	-56.62
3864.414	-51.17
3874.823	-27.72
3885.202	-21.53
3895.55	-32.17
3905.868	-55.53
3916.155	-59.62
3926.411	-59.44
3936.638	-59.9
3946.834	-59.62
3957	-58.9
3967.137	-58.53
3977.244	-58.72
3987.321	-58.72
3997.369	-58.35
4007.388	-58.08
4017.377	-57.9
4027.338	-58.53
4037.269	-57.26
4047.172	-58.81
4057.046	-58.44
4066.891	-58.62
4076.708	-56.72
4086.497	-58.35
4096.257	-45.62
4105.989	-22.26
4115.694	-20.53
4125.37	-39.35
4135.019	-57.51
4142.237	-56.79

File: BC108 - 30s - I=1, bc=5_RamanShift_2.txt
Data from BC108 - 30s - I=1, bc=5_RamanShift_2.txt Node

Date: Thu Aug 24 11:53:58 IDT 2017
User: aro
Spectrometer: QEPB0276
Trigger mode: 0
Integration Time (sec): 3.000000E1
Scans to average: 1
Electric dark correction enabled: true
Nonlinearity correction enabled: false
Boxcar width: 5
XAxis mode: Raman Shifts
Number of Pixels in Spectrum: 1044
>>>>>Begin Spectral Data<<<<<
160.701	204.38
184.826	692.07
208.845	1229.88
232.758	1683.06
256.565	1819.33
280.267	1928.33
303.865	2026.88
327.359	2105.6
350.751	2194.15
374.04	2294.24
397.228	2581.97
420.315	2636.69
443.302	2572.06
466.189	2230.78
488.978	2025.24
511.668	1735.69
534.261	1434.24
556.756	1268.42
579.155	1214.51
601.459	1182.24
623.667	1207.78
645.781	1191.78
667.8	1144.6
689.726	1022.51
711.56	987.6
733.301	1005.24
754.951	1023.88
776.509	1052.33
797.977	1045.69
819.355	1027.6
840.644	973.97
861.844	914.78
882.955	862.42
903.979	829.6
924.916	814.78
945.766	802.42
966.529	784.33
987.208	769.24
1007.801	773.51
1028.309	787.88
1048.734	786.15
1069.075	774.97
1089.333	761.51
1109.509	737.06
1129.602	711.42
1149.614	698.24
1169.545	699.88
1189.395	695.6
1209.165	694.06
1228.856	690.78
1248.467	673.33
1268	641.15
1287.455	623.6
1306.832	622.6
1326.132	619.97
1345.354	603.42
1364.501	579.33
1383.572	552.78
1402.567	531.97
1421.487	524.69
1440.333	529.15
1459.104	534.15
1477.802	531.51
1496.426	532.24
1514.978	528.33
1533.457	519.69
1551.864	505.42
1570.199	486.6
1588.464	455.97
1606.657	436.51
1624.78	426.33
1642.834	428.33
1660.817	436.06
1678.732	438.97
1696.577	426.88
1714.355	407.6
1732.064	383.06
1749.705	358.88
1767.28	345.51
1784.787	338.15
1802.228	331.15
1819.603	314.51
1836.913	298.24
1854.156	295.97
1871.335	299.24
1888.449	302.33
1905.499	303.69
1922.485	306.78
1939.408	300.88
1956.267	281.51
1973.063	258.24
1989.797	238.33
2006.469	227.69
2023.078	216.33
2039.627	211.42
2056.114	213.15
2072.54	217.06
2088.906	217.6
2105.211	208.97
2121.457	194.33
2137.643	182.88
2153.77	173.97
2169.838	165.6
2185.848	157.88
2201.799	152.06
2217.693	148.06
2233.529	144.51
2249.307	137.6
2265.029	130.69
2280.694	124.06
2296.302	119.6
2311.854	130.33
2327.351	144.78
2342.792	138.97
2358.178	107.6
2373.508	97.33
2388.785	94.6
2404.007	90.42
2419.174	86.15
2434.289	83.06
2449.349	78.97
2464.356	74.15
2479.311	72.88
2494.213	69.69
2509.062	70.06
2523.859	67.33
2538.605	66.6
2553.299	63.06
2567.941	61.33
2582.533	56.33
2597.073	52.51
2611.564	48.69
2626.004	43.06
2640.394	38.69
2654.734	35.15
2669.025	33.15
2683.266	28.24
2697.458	24.78
2711.602	22.69
2725.697	23.78
2739.744	23.88
2753.743	20.33
2767.695	16.33
2781.598	12.97
2795.455	12.97
2809.264	12.33
2823.026	11.6
2836.742	9.6
2850.412	8.69
2864.035	7.06
2877.613	5.06
2891.145	1.78
2904.631	-2.85
2918.073	-5.4
2931.469	-7.4
2944.821	-9.4
2958.128	-12.03
2971.39	-13.49
2984.609	-14.03
2997.784	-15.49
3010.915	-17.67
3024.002	-21.31
3037.046	-24.49
3050.048	-27.94
3063.006	-29.03
3075.922	-29.85
3088.795	-29.67
3101.627	-30.85
3114.416	-30.31
3127.163	-30.94
3139.869	-31.85
3152.533	-34.31
3165.157	-34.49
3177.739	-35.12
3190.28	-34.22
3202.781	-34.49
3215.241	-34.22
3227.661	-36.94
3240.041	-37.85
3252.382	-38.67
3264.682	-38.49
3276.943	-39.67
3289.165	-41.4
3301.348	-43.22
3313.492	-44.03
3325.597	-46.22
3337.663	-48.03
3349.691	-48.22
3361.681	-47.58
3373.633	-49.31
3385.547	-50.12
3397.424	-50.94
3409.263	-49.94
3421.065	-48.67
3432.829	-49.22
3444.557	-48.76
3456.247	-48.58
3467.902	-48.03
3479.519	-47.94
3491.101	-48.22
3502.646	-47.85
3514.155	-47.4
3525.629	-47.4
3537.067	-49.03
3548.469	-49.76
3559.837	-51.12
3571.169	-49.85
3582.466	-50.31
3593.728	-50.76
3604.956	-51.31
3616.149	-51.58
3627.307	-51.31
3638.432	-52.4
3649.523	-53.85
3660.579	-54.03
3671.602	-53.94
3682.591	-55.22
3693.547	-55.49
3704.47	-56.85
3715.359	-55.94
3726.216	-55.94
3737.039	-55.94
3747.83	-56.03
3758.589	-55.4
3769.315	-55.67
3780.008	-54.58
3790.67	-54.49
3801.299	-55.31
3811.897	-54.85
3822.463	-53.67
3832.998	-52.49
3843.501	-53.94
3853.973	-54.22
3864.414	-48.76
3874.823	-25.58
3885.202	-20.67
3895.55	-29.4
3905.868	-51.12
3916.155	-54.85
3926.411	-54.31
3936.638	-54.4
3946.834	-53.4
3957	-52.85
3967.137	-52.67
3977.244	-52.31
3987.321	-52.12
3997.369	-51.31
4007.388	-52.03
4017.377	-52.4
4027.338	-54.85
4037.269	-53.49
4047.172	-55.85
4057.046	-55.4
4066.891	-55.03
4076.708	-53.22
4086.497	-54.67
4096.257	-41.22
4105.989	-17.76
4115.694	-17.31
4125.37	-36.67
4135.019	-54.24
4142.237	-54.12

File: just alumminum - 30s - I=1, bc=5_RamanShift_1.txt
Data from just alumminum - 30s - I=1, bc=5_RamanShift_1.txt Node

Date: Thu Aug 24 11:51:55 IDT 2017
User: aro
Spectrometer: QEPB0276
Trigger mode: 0
Integration Time (sec): 3.000000E1
Scans to average: 1
Electric dark correction enabled: true
Nonlinearity correction enabled: false
Boxcar width: 5
XAxis mode: Raman Shifts
Number of Pixels in Spectrum: 1044
>>>>>Begin Spectral Data<<<<<
160.701	217.25
184.826	644.85
208.845	1113.11
232.758	1507.3
256.565	1633.84
280.267	1749.39
303.865	1857.93
327.359	1952.2
350.751	2065.84
374.04	2199.02
397.228	2553.66
420.315	2620.66
443.302	2541.84
466.189	2133.48
488.978	1890.57
511.668	1544.39
534.261	1179.66
556.756	980.39
579.155	920.93
601.459	891.93
623.667	934.3
645.781	926.39
667.8	877.11
689.726	736.57
711.56	697.93
733.301	719.39
754.951	741.02
776.509	777.48
797.977	780.39
819.355	768.02
840.644	707.48
861.844	640.48
882.955	582.2
903.979	548.02
924.916	534.48
945.766	527.02
966.529	516.84
987.208	508.39
1007.801	515.57
1028.309	532.11
1048.734	543.84
1069.075	542.2
1089.333	527.93
1109.509	501.02
1129.602	480.93
1149.614	477.11
1169.545	481.57
1189.395	483.66
1209.165	482.02
1228.856	481.57
1248.467	467.66
1268	446.11
1287.455	433.66
1306.832	432.93
1326.132	430.11
1345.354	419.39
1364.501	407.11
1383.572	393.75
1402.567	378.02
1421.487	370.39
1440.333	373.75
1459.104	378.57
1477.802	379.02
1496.426	383.75
1514.978	384.57
1533.457	382.75
1551.864	379.57
1570.199	367.84
1588.464	344.66
1606.657	327.57
1624.78	317.84
1642.834	317.66
1660.817	320.39
1678.732	321.57
1696.577	312.3
1714.355	300.3
1732.064	279.39
1749.705	258.11
1767.28	243.39
1784.787	237.75
1802.228	230.48
1819.603	219.57
1836.913	206.93
1854.156	206.3
1871.335	209.11
1888.449	211.48
1905.499	210.39
1922.485	209.39
1939.408	204.66
1956.267	192.93
1973.063	176.3
1989.797	162.84
2006.469	155.2
2023.078	149.57
2039.627	145.3
2056.114	145.2
2072.54	147.84
2088.906	147.66
2105.211	140.3
2121.457	130.39
2137.643	119.93
2153.77	111.93
2169.838	104.66
2185.848	98.39
2201.799	92.84
2217.693	92.2
2233.529	90.02
2249.307	84.3
2265.029	78.93
2280.694	73.93
2296.302	70.11
2311.854	85.11
2327.351	104.02
2342.792	101.3
2358.178	66.93
2373.508	53.39
2388.785	51.39
2404.007	50.39
2419.174	47.57
2434.289	44.11
2449.349	39.3
2464.356	34.84
2479.311	34.2
2494.213	32.48
2509.062	32.39
2523.859	31.84
2538.605	30.11
2553.299	28.02
2567.941	27.39
2582.533	24.39
2597.073	20.3
2611.564	15.02
2626.004	10.57
2640.394	6.57
2654.734	4.3
2669.025	1.57
2683.266	-1.25
2697.458	-5.34
2711.602	-5.43
2725.697	-4.7
2739.744	-5.34
2753.743	-7.34
2767.695	-11.07
2781.598	-11.52
2795.455	-13.34
2809.264	-13.98
2823.026	-15.61
2836.742	-17.25
2850.412	-18.07
2864.035	-20.43
2877.613	-23.98
2891.145	-28.7
2904.631	-32.52
2918.073	-34.07
2931.469	-35.34
2944.821	-36.98
2958.128	-38.7
2971.39	-40.89
2984.609	-41.7
2997.784	-43.34
3010.915	-44.25
3024.002	-46.7
3037.046	-48.8
3050.048	-50.52
3063.006	-52.07
3075.922	-52.7
3088.795	-53.7
3101.627	-54.43
3114.416	-54.61
3127.163	-56.16
3139.869	-56.8
3152.533	-57.25
3165.157	-56.7
3177.739	-57.89
3190.28	-58.89
3202.781	-59.16
3215.241	-58.98
3227.661	-61.16
3240.041	-63.07
3252.382	-64.61
3264.682	-64.07
3276.943	-65.25
3289.165	-65.98
3301.348	-67.34
3313.492	-68.8
3325.597	-69.8
3337.663	-69.52
3349.691	-70.16
3361.681	-70.52
3373.633	-71.07
3385.547	-70.52
3397.424	-71.34
3409.263	-71.98
3421.065	-72.98
3432.829	-72.61
3444.557	-71.61
3456.247	-71.43
3467.902	-71.07
3479.519	-71.25
3491.101	-71.98
3502.646	-72.07
3514.155	-71.89
3525.629	-71.16
3537.067	-72.25
3548.469	-73.25
3559.837	-73.89
3571.169	-74.25
3582.466	-75.07
3593.728	-77.07
3604.956	-76.98
3616.149	-75.61
3627.307	-73.61
3638.432	-74.7
3649.523	-76.98
3660.579	-78.16
3671.602	-79.34
3682.591	-80.8
3693.547	-80.8
3704.47	-80.98
3715.359	-78.89
3726.216	-78.98
3737.039	-79.16
3747.83	-79.34
3758.589	-78.98
3769.315	-77.61
3780.008	-77.98
3790.67	-77.34
3801.299	-78.16
3811.897	-77.89
3822.463	-78.7
3832.998	-78.16
3843.501	-78.52
3853.973	-77.89
3864.414	-62.8
3874.823	-1.61
3885.202	11.39
3895.55	-12.16
3905.868	-70.7
3916.155	-79.16
3926.411	-80.7
3936.638	-80.52
3946.834	-79.8
3957	-76.61
3967.137	-77.89
3977.244	-78.98
3987.321	-79.8
3997.369	-79.98
4007.388	-80.89
4017.377	-81.89
4027.338	-81.7
4037.269	-79.98
4047.172	-80.7
4057.046	-81.16
4066.891	-80.61
4076.708	-78.98
4086.497	-79.89
4096.257	-51.61
4105.989	-3.89
4115.694	-2.52
4125.37	-44.52
4135.019	-80.25
4142.237	-80.58