Folder: Water/Data/Raman/2017-08-24 - Glass, alluminum 108/Aluminum II [full set] (part 5)

File: Alu-EC107 30s,I=1, BC=3, 1sta _RamanShift_3.txt
Data from Alu-EC107 30s,I=1, BC=3, 1sta _RamanShift_3.txt Node

Date: Thu Aug 24 13:35:51 IDT 2017
User: aro
Spectrometer: QEPB0276
Trigger mode: 0
Integration Time (sec): 3.000000E1
Scans to average: 1
Electric dark correction enabled: true
Nonlinearity correction enabled: false
Boxcar width: 5
XAxis mode: Raman Shifts
Number of Pixels in Spectrum: 1044
>>>>>Begin Spectral Data<<<<<
160.701	181.71
184.826	555.77
208.845	962.06
232.758	1307.15
256.565	1412.69
280.267	1511.33
303.865	1600.6
327.359	1674.6
350.751	1770.69
374.04	1886.24
397.228	2190.24
420.315	2249.69
443.302	2183.97
466.189	1833.6
488.978	1628.88
511.668	1332.97
534.261	1026.69
556.756	858.6
579.155	806.88
601.459	780.15
623.667	824.06
645.781	822.97
667.8	780.51
689.726	652.88
711.56	620.24
733.301	639.69
754.951	661.88
776.509	695.06
797.977	696.88
819.355	686.42
840.644	634.15
861.844	575.24
882.955	526.69
903.979	497.97
924.916	490.78
945.766	483.42
966.529	473.78
987.208	465.33
1007.801	471.15
1028.309	484.06
1048.734	493.06
1069.075	491.42
1089.333	479.78
1109.509	458.42
1129.602	438.24
1149.614	433.78
1169.545	437.33
1189.395	441.69
1209.165	439.78
1228.856	439.33
1248.467	424.6
1268	398.33
1287.455	388.15
1306.832	398.15
1326.132	397.97
1345.354	386.42
1364.501	367.42
1383.572	354.06
1402.567	339.6
1421.487	332.06
1440.333	338.88
1459.104	344.06
1477.802	343.33
1496.426	343.24
1514.978	343.6
1533.457	341.97
1551.864	338.24
1570.199	327.42
1588.464	305.97
1606.657	293.78
1624.78	286.6
1642.834	284.24
1660.817	288.51
1678.732	288.6
1696.577	280.33
1714.355	266.69
1732.064	248.69
1749.705	235.6
1767.28	225.78
1784.787	221.06
1802.228	213.97
1819.603	203.33
1836.913	192.06
1854.156	185.97
1871.335	184.78
1888.449	184.69
1905.499	187.42
1922.485	190.97
1939.408	190.06
1956.267	177.97
1973.063	161.78
1989.797	148.06
2006.469	142.6
2023.078	136.88
2039.627	131.97
2056.114	131.69
2072.54	134.42
2088.906	134.6
2105.211	129.88
2121.457	121.97
2137.643	114.78
2153.77	106.33
2169.838	98.15
2185.848	92.33
2201.799	87.78
2217.693	85.88
2233.529	85.33
2249.307	82.33
2265.029	78.88
2280.694	75.78
2296.302	73.51
2311.854	82.88
2327.351	96.69
2342.792	91.88
2358.178	62.51
2373.508	53.51
2388.785	51.06
2404.007	47.6
2419.174	44.42
2434.289	42.97
2449.349	42.06
2464.356	37.78
2479.311	35.33
2494.213	32.33
2509.062	32.33
2523.859	31.15
2538.605	28.78
2553.299	29.51
2567.941	28.15
2582.533	25.24
2597.073	21.06
2611.564	16.24
2626.004	13.24
2640.394	9.51
2654.734	7.33
2669.025	6.24
2683.266	4.78
2697.458	2.06
2711.602	-1.58
2725.697	-1.94
2739.744	-1.49
2753.743	-1.76
2767.695	-5.31
2781.598	-7.22
2795.455	-8.22
2809.264	-8.4
2823.026	-9.12
2836.742	-10.13
2850.412	-12.67
2864.035	-13.94
2877.613	-15.4
2891.145	-19.31
2904.631	-22.49
2918.073	-25.03
2931.469	-25.85
2944.821	-28.58
2958.128	-29.03
2971.39	-28.22
2984.609	-27.94
2997.784	-29.12
3010.915	-31.67
3024.002	-34.12
3037.046	-37.31
3050.048	-37.67
3063.006	-38.49
3075.922	-39.49
3088.795	-40.58
3101.627	-42.4
3114.416	-41.76
3127.163	-42.67
3139.869	-42.94
3152.533	-45.22
3165.157	-45.12
3177.739	-46.31
3190.28	-46.4
3202.781	-47.67
3215.241	-48.12
3227.661	-49.4
3240.041	-51.22
3252.382	-51.67
3264.682	-51.94
3276.943	-50.22
3289.165	-49.76
3301.348	-49.94
3313.492	-51.03
3325.597	-52.4
3337.663	-53.58
3349.691	-55.12
3361.681	-55.22
3373.633	-55.49
3385.547	-54.67
3397.424	-54.31
3409.263	-55.31
3421.065	-56.12
3432.829	-55.12
3444.557	-56.03
3456.247	-55.76
3467.902	-56.49
3479.519	-57.49
3491.101	-58.67
3502.646	-57.85
3514.155	-58.67
3525.629	-58.03
3537.067	-57.12
3548.469	-56.94
3559.837	-57.49
3571.169	-59.67
3582.466	-59.85
3593.728	-61.22
3604.956	-61.49
3616.149	-61.76
3627.307	-61.94
3638.432	-60.03
3649.523	-60.49
3660.579	-60.85
3671.602	-63.85
3682.591	-64.31
3693.547	-63.67
3704.47	-62.67
3715.359	-62.94
3726.216	-62.58
3737.039	-62.49
3747.83	-62.49
3758.589	-62.49
3769.315	-64.31
3780.008	-68.31
3790.67	-68.4
3801.299	-65.22
3811.897	-61.4
3822.463	-61.94
3832.998	-63.12
3843.501	-62.76
3853.973	-62.03
3864.414	-53.22
3874.823	-12.76
3885.202	-3.22
3895.55	-18.31
3905.868	-56.22
3916.155	-61.67
3926.411	-63.12
3936.638	-63.94
3946.834	-64.31
3957	-62.67
3967.137	-61.03
3977.244	-61.94
3987.321	-61.76
3997.369	-61.85
4007.388	-62.94
4017.377	-63.76
4027.338	-64.31
4037.269	-64.76
4047.172	-63.67
4057.046	-62.12
4066.891	-59.67
4076.708	-59.58
4086.497	-61.4
4096.257	-40.85
4105.989	-3.76
4115.694	-5.49
4125.37	-37.94
4135.019	-66.79
4142.237	-65.29

File: Alu-EC108 30s,I=1, BC=3, 1sta _RamanShift_1.txt
Data from Alu-EC108 30s,I=1, BC=3, 1sta _RamanShift_1.txt Node

Date: Thu Aug 24 13:37:21 IDT 2017
User: aro
Spectrometer: QEPB0276
Trigger mode: 0
Integration Time (sec): 3.000000E1
Scans to average: 1
Electric dark correction enabled: true
Nonlinearity correction enabled: false
Boxcar width: 5
XAxis mode: Raman Shifts
Number of Pixels in Spectrum: 1044
>>>>>Begin Spectral Data<<<<<
160.701	252.79
184.826	845.83
208.845	1505.26
232.758	2061.35
256.565	2221.62
280.267	2348.62
303.865	2452.72
327.359	2533.26
350.751	2618.72
374.04	2713.99
397.228	2991.26
420.315	3040.9
443.302	2971.72
466.189	2636.62
488.978	2428.81
511.668	2139.9
534.261	1836.81
556.756	1672.35
579.155	1614.17
601.459	1578.44
623.667	1597.9
645.781	1578.44
667.8	1527.44
689.726	1396.26
711.56	1355.08
733.301	1364.35
754.951	1374.81
776.509	1396.44
797.977	1381.17
819.355	1353.81
840.644	1300.81
861.844	1240.81
882.955	1186.72
903.979	1144.99
924.916	1126.81
945.766	1110.44
966.529	1088.99
987.208	1064.9
1007.801	1068.62
1028.309	1076.35
1048.734	1069.53
1069.075	1055.9
1089.333	1041.26
1109.509	1009.99
1129.602	976.53
1149.614	956.81
1169.545	952.99
1189.395	944.44
1209.165	938.44
1228.856	930.81
1248.467	907.44
1268	867.44
1287.455	844.08
1306.832	845.26
1326.132	834.81
1345.354	802.44
1364.501	762.26
1383.572	726.26
1402.567	702.17
1421.487	696.17
1440.333	704.9
1459.104	708.08
1477.802	701.26
1496.426	691.53
1514.978	678.35
1533.457	657.62
1551.864	640.81
1570.199	624.81
1588.464	598.17
1606.657	577.62
1624.78	564.17
1642.834	564.81
1660.817	569.99
1678.732	565.99
1696.577	541.17
1714.355	512.26
1732.064	482.53
1749.705	458.26
1767.28	439.17
1784.787	425.53
1802.228	411.26
1819.603	388.99
1836.913	376.44
1854.156	374.44
1871.335	378.62
1888.449	379.17
1905.499	375.72
1922.485	374.9
1939.408	363.62
1956.267	340.44
1973.063	311.53
1989.797	291.62
2006.469	281.99
2023.078	272.81
2039.627	262.99
2056.114	262.08
2072.54	266.62
2088.906	264.17
2105.211	250.17
2121.457	236.62
2137.643	223.99
2153.77	212.72
2169.838	201.53
2185.848	190.81
2201.799	185.17
2217.693	183.08
2233.529	179.9
2249.307	171.35
2265.029	160.99
2280.694	153.17
2296.302	146.26
2311.854	153.26
2327.351	166.35
2342.792	160.26
2358.178	130.53
2373.508	120.08
2388.785	117.35
2404.007	114.17
2419.174	108.81
2434.289	105.9
2449.349	102.35
2464.356	96.99
2479.311	91.26
2494.213	89.35
2509.062	90.17
2523.859	87.26
2538.605	81.99
2553.299	78.44
2567.941	74.08
2582.533	68.44
2597.073	62.17
2611.564	57.62
2626.004	54.53
2640.394	48.9
2654.734	43.44
2669.025	38.81
2683.266	33.72
2697.458	28.62
2711.602	24.99
2725.697	25.53
2739.744	26.35
2753.743	23.53
2767.695	15.08
2781.598	10.53
2795.455	8.99
2809.264	9.17
2823.026	7.35
2836.742	6.35
2850.412	5.9
2864.035	5.17
2877.613	1.99
2891.145	-4.01
2904.631	-9.1
2918.073	-12.74
2931.469	-13.47
2944.821	-16.92
2958.128	-17.56
2971.39	-19.65
2984.609	-19.83
2997.784	-22.01
3010.915	-25.56
3024.002	-29.1
3037.046	-33.1
3050.048	-35.01
3063.006	-36.28
3075.922	-36.1
3088.795	-36.74
3101.627	-38.19
3114.416	-39.19
3127.163	-40.92
3139.869	-43.47
3152.533	-44.65
3165.157	-45.92
3177.739	-47.1
3190.28	-49.01
3202.781	-49.01
3215.241	-50.28
3227.661	-50.38
3240.041	-52.1
3252.382	-53.28
3264.682	-55.47
3276.943	-55.19
3289.165	-54.74
3301.348	-55.56
3313.492	-55.83
3325.597	-57.1
3337.663	-56.74
3349.691	-58.65
3361.681	-60.65
3373.633	-62.38
3385.547	-61.19
3397.424	-60.47
3409.263	-61.56
3421.065	-62.38
3432.829	-62.65
3444.557	-62.83
3456.247	-62.83
3467.902	-62.19
3479.519	-62.38
3491.101	-63.83
3502.646	-63.01
3514.155	-64.19
3525.629	-64.01
3537.067	-64.38
3548.469	-64.74
3559.837	-64.83
3571.169	-65.74
3582.466	-65.01
3593.728	-65.83
3604.956	-66.1
3616.149	-65.74
3627.307	-67.01
3638.432	-67.65
3649.523	-68.74
3660.579	-68.92
3671.602	-70.47
3682.591	-69.83
3693.547	-67.65
3704.47	-66.83
3715.359	-67.19
3726.216	-69.38
3737.039	-70.01
3747.83	-68.92
3758.589	-68.56
3769.315	-69.38
3780.008	-73.19
3790.67	-73.19
3801.299	-70.19
3811.897	-66.83
3822.463	-67.83
3832.998	-69.38
3843.501	-69.19
3853.973	-69.47
3864.414	-61.19
3874.823	-26.19
3885.202	-16.19
3895.55	-29.01
3905.868	-61.74
3916.155	-67.83
3926.411	-69.28
3936.638	-70.28
3946.834	-70.74
3957	-69.01
3967.137	-67.65
3977.244	-66.65
3987.321	-66.01
3997.369	-64.74
4007.388	-67.56
4017.377	-69.56
4027.338	-71.1
4037.269	-70.19
4047.172	-68.47
4057.046	-67.74
4066.891	-67.92
4076.708	-67.65
4086.497	-68.38
4096.257	-52.47
4105.989	-19.92
4115.694	-20.47
4125.37	-46.1
4135.019	-71.93
4142.237	-71.04

File: Alu-EC108 30s,I=1, BC=3, 1sta _RamanShift_2.txt
Data from Alu-EC108 30s,I=1, BC=3, 1sta _RamanShift_2.txt Node

Date: Thu Aug 24 13:37:51 IDT 2017
User: aro
Spectrometer: QEPB0276
Trigger mode: 0
Integration Time (sec): 3.000000E1
Scans to average: 1
Electric dark correction enabled: true
Nonlinearity correction enabled: false
Boxcar width: 5
XAxis mode: Raman Shifts
Number of Pixels in Spectrum: 1044
>>>>>Begin Spectral Data<<<<<
160.701	229.67
184.826	753.8
208.845	1337.41
232.758	1832.95
256.565	1978.5
280.267	2097.14
303.865	2195.23
327.359	2271.95
350.751	2351.32
374.04	2448.23
397.228	2729.86
420.315	2785.68
443.302	2720.59
466.189	2385.95
488.978	2184.95
511.668	1905.77
534.261	1603.77
556.756	1440.32
579.155	1386.23
601.459	1352.32
623.667	1377.95
645.781	1366.5
667.8	1317.05
689.726	1193.32
711.56	1150.77
733.301	1161.41
754.951	1176.05
776.509	1205.41
797.977	1202.23
819.355	1180.05
840.644	1126.14
861.844	1067.68
882.955	1011.32
903.979	975.77
924.916	960.59
945.766	951.59
966.529	931.05
987.208	913.23
1007.801	913.95
1028.309	927.59
1048.734	924.59
1069.075	914.68
1089.333	898.32
1109.509	873.32
1129.602	843.86
1149.614	828.86
1169.545	826.23
1189.395	821.5
1209.165	816.23
1228.856	813.77
1248.467	789.41
1268	749.68
1287.455	730.41
1306.832	732.32
1326.132	727.77
1345.354	698.77
1364.501	662.77
1383.572	634.14
1402.567	617.41
1421.487	610.59
1440.333	619.59
1459.104	621.95
1477.802	615.5
1496.426	605.23
1514.978	594.59
1533.457	580.95
1551.864	568.95
1570.199	551.14
1588.464	527.95
1606.657	510.5
1624.78	499.05
1642.834	498.59
1660.817	503.41
1678.732	499.95
1696.577	479.68
1714.355	455.23
1732.064	427.41
1749.705	405.14
1767.28	391.5
1784.787	384.23
1802.228	369.95
1819.603	349.41
1836.913	334.05
1854.156	331.23
1871.335	331.68
1888.449	333.05
1905.499	333.95
1922.485	332.05
1939.408	324.23
1956.267	305.23
1973.063	281.86
1989.797	264.14
2006.469	255.86
2023.078	246.32
2039.627	237.32
2056.114	233.14
2072.54	235.23
2088.906	235.77
2105.211	228.32
2121.457	218.05
2137.643	206.5
2153.77	194.59
2169.838	182.41
2185.848	171.59
2201.799	164.95
2217.693	163.05
2233.529	160.95
2249.307	155.14
2265.029	145.59
2280.694	138.32
2296.302	134.32
2311.854	142.41
2327.351	155.5
2342.792	147.41
2358.178	118.14
2373.508	106.14
2388.785	104.41
2404.007	100.77
2419.174	98.23
2434.289	96.86
2449.349	94.77
2464.356	89.59
2479.311	84.86
2494.213	82.86
2509.062	79.59
2523.859	77.05
2538.605	73.5
2553.299	72.05
2567.941	69.23
2582.533	65.23
2597.073	60.05
2611.564	55.23
2626.004	49.5
2640.394	43.68
2654.734	38.59
2669.025	36.05
2683.266	33.05
2697.458	29.05
2711.602	24.5
2725.697	22.41
2739.744	21.41
2753.743	18.59
2767.695	15.05
2781.598	12.14
2795.455	10.41
2809.264	9.68
2823.026	9.95
2836.742	10.05
2850.412	8.05
2864.035	7.23
2877.613	2.32
2891.145	-3.41
2904.631	-8.68
2918.073	-11.59
2931.469	-12.23
2944.821	-12.95
2958.128	-13.5
2971.39	-14.77
2984.609	-18.14
2997.784	-20.95
3010.915	-24.86
3024.002	-27.14
3037.046	-30.41
3050.048	-29.77
3063.006	-29.77
3075.922	-30.23
3088.795	-30.23
3101.627	-33.41
3114.416	-34.77
3127.163	-37.41
3139.869	-38.32
3152.533	-39.41
3165.157	-40.32
3177.739	-41.77
3190.28	-42.59
3202.781	-42.95
3215.241	-42.59
3227.661	-44.23
3240.041	-47.23
3252.382	-49.32
3264.682	-51.59
3276.943	-52.86
3289.165	-52.68
3301.348	-53.23
3313.492	-50.77
3325.597	-50.5
3337.663	-50.5
3349.691	-52.59
3361.681	-54.5
3373.633	-56.77
3385.547	-57.5
3397.424	-58.05
3409.263	-58.77
3421.065	-58.59
3432.829	-56.68
3444.557	-55.32
3456.247	-53.59
3467.902	-54.32
3479.519	-56.05
3491.101	-57.77
3502.646	-58.95
3514.155	-61.14
3525.629	-61.59
3537.067	-61.05
3548.469	-59.5
3559.837	-58.05
3571.169	-58.14
3582.466	-59.32
3593.728	-60.68
3604.956	-62.5
3616.149	-63.41
3627.307	-64.68
3638.432	-63.41
3649.523	-62.5
3660.579	-62.05
3671.602	-61.77
3682.591	-61.95
3693.547	-61.41
3704.47	-62.41
3715.359	-63.95
3726.216	-66.05
3737.039	-65.41
3747.83	-63.41
3758.589	-60.86
3769.315	-61.68
3780.008	-65.59
3790.67	-66.41
3801.299	-64.68
3811.897	-62.86
3822.463	-64.41
3832.998	-66.77
3843.501	-65.86
3853.973	-63.86
3864.414	-53.05
3874.823	-19.77
3885.202	-12.41
3895.55	-26.77
3905.868	-58.59
3916.155	-63.77
3926.411	-63.77
3936.638	-63.23
3946.834	-64.05
3957	-62.86
3967.137	-61.59
3977.244	-61.32
3987.321	-62.59
3997.369	-62.95
4007.388	-63.86
4017.377	-64.23
4027.338	-64.59
4037.269	-63.05
4047.172	-59.5
4057.046	-58.14
4066.891	-59.5
4076.708	-61.95
4086.497	-64.95
4096.257	-47.95
4105.989	-16.59
4115.694	-17.14
4125.37	-41.68
4135.019	-66.17
4142.237	-64.83

File: Alu-EC108 30s,I=1, BC=3, 1sta _RamanShift_3.txt
Data from Alu-EC108 30s,I=1, BC=3, 1sta _RamanShift_3.txt Node

Date: Thu Aug 24 13:38:21 IDT 2017
User: aro
Spectrometer: QEPB0276
Trigger mode: 0
Integration Time (sec): 3.000000E1
Scans to average: 1
Electric dark correction enabled: true
Nonlinearity correction enabled: false
Boxcar width: 5
XAxis mode: Raman Shifts
Number of Pixels in Spectrum: 1044
>>>>>Begin Spectral Data<<<<<
160.701	216.54
184.826	719.38
208.845	1276.47
232.758	1746.74
256.565	1884.28
280.267	2004.38
303.865	2101.92
327.359	2176.01
350.751	2260.83
374.04	2357.01
397.228	2640.38
420.315	2691.92
443.302	2630.47
466.189	2296.56
488.978	2096.1
511.668	1816.01
534.261	1520.19
556.756	1357.74
579.155	1297.74
601.459	1267.47
623.667	1295.28
645.781	1285.01
667.8	1239.19
689.726	1113.1
711.56	1078.19
733.301	1090.74
754.951	1108.28
776.509	1135.92
797.977	1132.19
819.355	1109.1
840.644	1057.1
861.844	999.56
882.955	951.19
903.979	915.83
924.916	902.1
945.766	891.92
966.529	872.56
987.208	852.56
1007.801	854.38
1028.309	867.19
1048.734	870.01
1069.075	862.38
1089.333	849.38
1109.509	824.92
1129.602	796.47
1149.614	784.56
1169.545	784.65
1189.395	778.1
1209.165	770.1
1228.856	765.1
1248.467	744.47
1268	713.19
1287.455	696.83
1306.832	699.83
1326.132	692.47
1345.354	667.65
1364.501	633.92
1383.572	606.74
1402.567	588.28
1421.487	581.65
1440.333	590.74
1459.104	594.74
1477.802	589.38
1496.426	584.01
1514.978	573.1
1533.457	557.92
1551.864	543.19
1570.199	530.38
1588.464	507.19
1606.657	489.47
1624.78	478.1
1642.834	477.28
1660.817	482.83
1678.732	479.19
1696.577	460.74
1714.355	435.01
1732.064	408.65
1749.705	388.38
1767.28	373.83
1784.787	365.83
1802.228	353.56
1819.603	335.47
1836.913	323.56
1854.156	319.56
1871.335	322.74
1888.449	321.38
1905.499	322.19
1922.485	319.74
1939.408	312.47
1956.267	294.28
1973.063	271.47
1989.797	253.65
2006.469	247.47
2023.078	239.28
2039.627	231.92
2056.114	228.92
2072.54	230.65
2088.906	229.19
2105.211	217.92
2121.457	206.56
2137.643	195.56
2153.77	186.92
2169.838	177.28
2185.848	167.56
2201.799	162.1
2217.693	158.28
2233.529	155.92
2249.307	149.47
2265.029	141.1
2280.694	133.74
2296.302	126.65
2311.854	135.74
2327.351	149.47
2342.792	145.1
2358.178	115.19
2373.508	105.38
2388.785	102.74
2404.007	97.83
2419.174	92.47
2434.289	88.92
2449.349	87.65
2464.356	85.56
2479.311	83.28
2494.213	79.74
2509.062	78.74
2523.859	75.19
2538.605	71.38
2553.299	69.1
2567.941	65.74
2582.533	61.28
2597.073	55.38
2611.564	51.83
2626.004	48.92
2640.394	43.56
2654.734	38.65
2669.025	34.83
2683.266	29.83
2697.458	26.19
2711.602	23.65
2725.697	23.47
2739.744	23.47
2753.743	21.92
2767.695	17.1
2781.598	12.65
2795.455	10.01
2809.264	9.92
2823.026	8.92
2836.742	7.28
2850.412	5.38
2864.035	5.56
2877.613	4.92
2891.145	0.47
2904.631	-4.26
2918.073	-9.9
2931.469	-12.35
2944.821	-13.44
2958.128	-13.53
2971.39	-14.17
2984.609	-14.35
2997.784	-16.35
3010.915	-19.81
3024.002	-24.17
3037.046	-28.35
3050.048	-30.08
3063.006	-30.26
3075.922	-31.17
3088.795	-31.99
3101.627	-32.99
3114.416	-33.35
3127.163	-35.08
3139.869	-37.17
3152.533	-37.81
3165.157	-38.81
3177.739	-40.44
3190.28	-42.9
3202.781	-43.35
3215.241	-44.08
3227.661	-43.26
3240.041	-45.44
3252.382	-45.81
3264.682	-49.08
3276.943	-48.53
3289.165	-48.17
3301.348	-48.44
3313.492	-49.53
3325.597	-50.9
3337.663	-51.53
3349.691	-53.72
3361.681	-55.72
3373.633	-55.17
3385.547	-53.72
3397.424	-52.81
3409.263	-54.35
3421.065	-54.99
3432.829	-55.35
3444.557	-54.9
3456.247	-54.81
3467.902	-54.62
3479.519	-56.35
3491.101	-57.17
3502.646	-57.53
3514.155	-57.17
3525.629	-56.81
3537.067	-56.81
3548.469	-57.26
3559.837	-58.35
3571.169	-58.62
3582.466	-58.9
3593.728	-60.35
3604.956	-60.53
3616.149	-59.62
3627.307	-59.08
3638.432	-57.99
3649.523	-59.35
3660.579	-59.62
3671.602	-60.72
3682.591	-60.81
3693.547	-60.44
3704.47	-60.72
3715.359	-61.53
3726.216	-62.17
3737.039	-62.08
3747.83	-61.08
3758.589	-60.72
3769.315	-61.9
3780.008	-65.72
3790.67	-67.35
3801.299	-64.81
3811.897	-62.26
3822.463	-61.99
3832.998	-62.99
3843.501	-62.17
3853.973	-61.53
3864.414	-52.99
3874.823	-17.62
3885.202	-11.17
3895.55	-24.99
3905.868	-57.81
3916.155	-61.81
3926.411	-62.44
3936.638	-62.72
3946.834	-63.26
3957	-60.62
3967.137	-59.81
3977.244	-60.81
3987.321	-62.08
3997.369	-62.08
4007.388	-61.17
4017.377	-61.17
4027.338	-61.26
4037.269	-60.99
4047.172	-60.72
4057.046	-61.53
4066.891	-61.62
4076.708	-62.44
4086.497	-62.17
4096.257	-45.26
4105.989	-12.26
4115.694	-13.62
4125.37	-39.17
4135.019	-64.4
4142.237	-63.12

File: Alu-EC-Blank 30s,I=1, BC=3, 1sta _RamanShift_1.txt
Data from Alu-Blank 30s,I=1, BC=3, 1sta _RamanShift_1.txt Node

Date: Thu Aug 24 13:27:52 IDT 2017
User: aro
Spectrometer: QEPB0276
Trigger mode: 0
Integration Time (sec): 3.000000E1
Scans to average: 1
Electric dark correction enabled: true
Nonlinearity correction enabled: false
Boxcar width: 5
XAxis mode: Raman Shifts
Number of Pixels in Spectrum: 1044
>>>>>Begin Spectral Data<<<<<
160.701	176.12
184.826	534.62
208.845	926.12
232.758	1256.31
256.565	1361.03
280.267	1462.22
303.865	1544.94
327.359	1610.67
350.751	1696.67
374.04	1798.76
397.228	2078.76
420.315	2134.22
443.302	2077.58
466.189	1755.12
488.978	1560.67
511.668	1293.67
534.261	1012.94
556.756	861.58
579.155	813.85
601.459	790.49
623.667	829.85
645.781	823.12
667.8	783.94
689.726	665.4
711.56	639.31
733.301	659.49
754.951	680.12
776.509	703.67
797.977	702.31
819.355	689.76
840.644	641.22
861.844	585.76
882.955	538.22
903.979	516.49
924.916	507.76
945.766	501.49
966.529	487.85
987.208	475.85
1007.801	478.85
1028.309	493.76
1048.734	502.49
1069.075	501.76
1089.333	488.49
1109.509	468.67
1129.602	451.49
1149.614	447.03
1169.545	451.58
1189.395	454.67
1209.165	453.67
1228.856	450.12
1248.467	435.22
1268	413.85
1287.455	404.03
1306.832	406.03
1326.132	403.22
1345.354	390.12
1364.501	377.94
1383.572	367.03
1402.567	355.58
1421.487	350.76
1440.333	353.94
1459.104	356.22
1477.802	349.85
1496.426	348.58
1514.978	348.12
1533.457	346.85
1551.864	347.03
1570.199	339.76
1588.464	320.03
1606.657	306.49
1624.78	296.4
1642.834	294.31
1660.817	295.49
1678.732	293.67
1696.577	284.4
1714.355	271.4
1732.064	254.76
1749.705	240.4
1767.28	228.49
1784.787	221.85
1802.228	213.94
1819.603	202.03
1836.913	194.31
1854.156	191.85
1871.335	192.67
1888.449	191.67
1905.499	189.67
1922.485	186.4
1939.408	181.67
1956.267	171.94
1973.063	161.76
1989.797	152.12
2006.469	148.03
2023.078	142.03
2039.627	135.49
2056.114	132.85
2072.54	132.58
2088.906	130.03
2105.211	123.31
2121.457	117.49
2137.643	112.12
2153.77	109.22
2169.838	102.85
2185.848	96.94
2201.799	91.03
2217.693	88.31
2233.529	86.4
2249.307	84.76
2265.029	79.31
2280.694	76.31
2296.302	74.4
2311.854	86.03
2327.351	101.22
2342.792	96.4
2358.178	67.22
2373.508	56.94
2388.785	54.76
2404.007	50.85
2419.174	47.22
2434.289	44.67
2449.349	43.31
2464.356	40.12
2479.311	37.94
2494.213	36.31
2509.062	36.22
2523.859	35.22
2538.605	32.49
2553.299	30.76
2567.941	27.22
2582.533	23.4
2597.073	21.58
2611.564	20.22
2626.004	19.22
2640.394	15.12
2654.734	12.12
2669.025	8.94
2683.266	5.67
2697.458	3.12
2711.602	1.76
2725.697	3.03
2739.744	2.58
2753.743	1.22
2767.695	-3.33
2781.598	-5.42
2795.455	-6.97
2809.264	-5.97
2823.026	-6.6
2836.742	-7.15
2850.412	-8.51
2864.035	-9.51
2877.613	-12.42
2891.145	-16.6
2904.631	-21.24
2918.073	-23.15
2931.469	-22.69
2944.821	-22.06
2958.128	-22.24
2971.39	-22.78
2984.609	-24.78
2997.784	-27.6
3010.915	-31.06
3024.002	-33.33
3037.046	-35.69
3050.048	-33.97
3063.006	-33.06
3075.922	-33.42
3088.795	-34.42
3101.627	-36.33
3114.416	-38.78
3127.163	-40.97
3139.869	-42.06
3152.533	-42.24
3165.157	-42.6
3177.739	-43.24
3190.28	-43.24
3202.781	-42.88
3215.241	-44.6
3227.661	-45.88
3240.041	-48.51
3252.382	-48.97
3264.682	-50.24
3276.943	-49.06
3289.165	-47.69
3301.348	-48.69
3313.492	-48.42
3325.597	-50.24
3337.663	-50.15
3349.691	-50.97
3361.681	-53.06
3373.633	-54.6
3385.547	-53.78
3397.424	-52.42
3409.263	-52.24
3421.065	-51.97
3432.829	-51.15
3444.557	-51.69
3456.247	-52.15
3467.902	-52.69
3479.519	-53.51
3491.101	-55.15
3502.646	-55.06
3514.155	-55.78
3525.629	-55.33
3537.067	-55.88
3548.469	-56.42
3559.837	-55.97
3571.169	-57.42
3582.466	-56.78
3593.728	-58.24
3604.956	-57.6
3616.149	-57.06
3627.307	-57.51
3638.432	-58.6
3649.523	-60.15
3660.579	-59.69
3671.602	-61.15
3682.591	-60.51
3693.547	-59.15
3704.47	-59.51
3715.359	-58.97
3726.216	-59.6
3737.039	-57.6
3747.83	-57.97
3758.589	-56.78
3769.315	-58.51
3780.008	-62.33
3790.67	-62.97
3801.299	-60.51
3811.897	-58.69
3822.463	-60.15
3832.998	-61.06
3843.501	-59.97
3853.973	-58.51
3864.414	-49.33
3874.823	-12.06
3885.202	-2.42
3895.55	-17.78
3905.868	-54.24
3916.155	-60.88
3926.411	-61.88
3936.638	-61.15
3946.834	-60.06
3957	-57.33
3967.137	-55.15
3977.244	-54.69
3987.321	-55.69
3997.369	-57.06
4007.388	-59.88
4017.377	-61.88
4027.338	-63.6
4037.269	-61.42
4047.172	-59.24
4057.046	-56.24
4066.891	-56.33
4076.708	-57.6
4086.497	-59.69
4096.257	-39.06
4105.989	-1.24
4115.694	-3.15
4125.37	-34.88
4135.019	-63.54
4142.237	-62.54