Folder: Water/Data/Raman/2017-08-24 - Glass, alluminum 108/Aluminum

File: alucontrol - 30s - I=1, bc=5_RamanShift_1.txt
Data from alucontrol - 30s - I=1, bc=5_RamanShift_1.txt Node

Date: Thu Aug 24 12:08:43 IDT 2017
User: aro
Spectrometer: QEPB0276
Trigger mode: 0
Integration Time (sec): 3.000000E1
Scans to average: 1
Electric dark correction enabled: true
Nonlinearity correction enabled: false
Boxcar width: 5
XAxis mode: Raman Shifts
Number of Pixels in Spectrum: 1044
>>>>>Begin Spectral Data<<<<<
160.701	183.29
184.826	550.52
208.845	953.22
232.758	1290.76
256.565	1401.49
280.267	1503.94
303.865	1597.67
327.359	1675.94
350.751	1774.22
374.04	1888.76
397.228	2199.31
420.315	2257.58
443.302	2189.94
466.189	1833.85
488.978	1620.22
511.668	1315.22
534.261	993.76
556.756	818.85
579.155	767.49
601.459	744.58
623.667	786.03
645.781	777.67
667.8	733.22
689.726	605.4
711.56	576.4
733.301	599.31
754.951	620.58
776.509	656.12
797.977	658.67
819.355	645.03
840.644	589.85
861.844	526.94
882.955	478.76
903.979	450.4
924.916	439.67
945.766	432.4
966.529	422.94
987.208	415.12
1007.801	421.58
1028.309	434.4
1048.734	443.49
1069.075	441.58
1089.333	429.22
1109.509	407.85
1129.602	390.49
1149.614	387.76
1169.545	393.76
1189.395	396.03
1209.165	395.67
1228.856	394.76
1248.467	381.49
1268	359.22
1287.455	346.4
1306.832	349.31
1326.132	347.22
1345.354	341.31
1364.501	332.58
1383.572	320.31
1402.567	305.4
1421.487	299.22
1440.333	304.03
1459.104	308.85
1477.802	308.12
1496.426	310.49
1514.978	313.03
1533.457	317.49
1551.864	315.67
1570.199	305.12
1588.464	281.31
1606.657	269.31
1624.78	261.67
1642.834	261.67
1660.817	262.03
1678.732	264.03
1696.577	260.67
1714.355	247.31
1732.064	229.22
1749.705	210.76
1767.28	203.94
1784.787	200.22
1802.228	193.94
1819.603	181.76
1836.913	169.22
1854.156	165.58
1871.335	167.76
1888.449	170.22
1905.499	171.85
1922.485	171.4
1939.408	167.4
1956.267	159.12
1973.063	146.03
1989.797	135.31
2006.469	128.49
2023.078	124.4
2039.627	123.58
2056.114	123.22
2072.54	125.85
2088.906	125.22
2105.211	118.67
2121.457	109.22
2137.643	100.85
2153.77	94.31
2169.838	88.12
2185.848	82.31
2201.799	79.12
2217.693	77.31
2233.529	76.58
2249.307	71.4
2265.029	66.94
2280.694	61.12
2296.302	58.12
2311.854	72.67
2327.351	91.76
2342.792	88.03
2358.178	54.49
2373.508	41.94
2388.785	38.22
2404.007	35.76
2419.174	32.76
2434.289	29.22
2449.349	25.58
2464.356	24.22
2479.311	22.94
2494.213	22.58
2509.062	22.03
2523.859	22.03
2538.605	21.76
2553.299	20.03
2567.941	17.85
2582.533	14.85
2597.073	12.58
2611.564	8.31
2626.004	4.58
2640.394	1.12
2654.734	-0.78
2669.025	-0.88
2683.266	-3.24
2697.458	-5.69
2711.602	-7.42
2725.697	-7.06
2739.744	-7.42
2753.743	-8.87
2767.695	-13.15
2781.598	-14.88
2795.455	-16.33
2809.264	-15.78
2823.026	-16.06
2836.742	-16.51
2850.412	-15.6
2864.035	-16.33
2877.613	-18.78
2891.145	-22.69
2904.631	-26.88
2918.073	-27.42
2931.469	-29.24
2944.821	-29.97
2958.128	-32.42
2971.39	-34.6
2984.609	-37.15
2997.784	-38.97
3010.915	-40.15
3024.002	-41.6
3037.046	-42.78
3050.048	-43.51
3063.006	-44.24
3075.922	-43.69
3088.795	-44.97
3101.627	-44.33
3114.416	-44.69
3127.163	-46.97
3139.869	-47.88
3152.533	-49.24
3165.157	-50.42
3177.739	-52.33
3190.28	-52.51
3202.781	-53.24
3215.241	-53.24
3227.661	-53.97
3240.041	-54.97
3252.382	-55.69
3264.682	-56.06
3276.943	-57.06
3289.165	-57.78
3301.348	-58.78
3313.492	-59.42
3325.597	-60.51
3337.663	-60.88
3349.691	-60.88
3361.681	-60.33
3373.633	-60.88
3385.547	-61.06
3397.424	-60.69
3409.263	-60.24
3421.065	-60.42
3432.829	-61.69
3444.557	-61.42
3456.247	-61.33
3467.902	-60.15
3479.519	-60.15
3491.101	-60.78
3502.646	-61.97
3514.155	-61.97
3525.629	-61.24
3537.067	-62.06
3548.469	-63.15
3559.837	-62.69
3571.169	-62.88
3582.466	-62.88
3593.728	-63.15
3604.956	-63.15
3616.149	-62.06
3627.307	-62.06
3638.432	-63.6
3649.523	-66.15
3660.579	-66.97
3671.602	-67.88
3682.591	-69.06
3693.547	-68.33
3704.47	-68.69
3715.359	-67.97
3726.216	-68.33
3737.039	-68.15
3747.83	-68.97
3758.589	-68.15
3769.315	-65.69
3780.008	-64.33
3790.67	-62.88
3801.299	-63.78
3811.897	-64.78
3822.463	-65.78
3832.998	-66.42
3843.501	-66.78
3853.973	-66.06
3864.414	-55.06
3874.823	-14.69
3885.202	-6.33
3895.55	-24.69
3905.868	-63.97
3916.155	-69.97
3926.411	-70.06
3936.638	-69.69
3946.834	-67.15
3957	-65.42
3967.137	-66.97
3977.244	-67.33
3987.321	-67.06
3997.369	-65.15
4007.388	-65.78
4017.377	-66.78
4027.338	-67.6
4037.269	-66.24
4047.172	-66.33
4057.046	-66.24
4066.891	-67.24
4076.708	-66.33
4086.497	-67.51
4096.257	-45.42
4105.989	-7.24
4115.694	-6.51
4125.37	-39.15
4135.019	-67.76
4142.237	-66.54

File: alucontrol - 30s - I=1, bc=5_RamanShift_2.txt
Data from alucontrol - 30s - I=1, bc=5_RamanShift_2.txt Node

Date: Thu Aug 24 12:09:43 IDT 2017
User: aro
Spectrometer: QEPB0276
Trigger mode: 0
Integration Time (sec): 3.000000E1
Scans to average: 1
Electric dark correction enabled: true
Nonlinearity correction enabled: false
Boxcar width: 5
XAxis mode: Raman Shifts
Number of Pixels in Spectrum: 1044
>>>>>Begin Spectral Data<<<<<
160.701	183.54
184.826	548.88
208.845	950.28
232.758	1285.38
256.565	1389.83
280.267	1491.56
303.865	1583.83
327.359	1664.1
350.751	1762.83
374.04	1883.19
397.228	2201.01
420.315	2256.1
443.302	2184.1
466.189	1821.83
488.978	1613.28
511.668	1306.74
534.261	986.92
556.756	811.56
579.155	760.38
601.459	738.19
623.667	784.65
645.781	776.92
667.8	732.19
689.726	603.19
711.56	574.47
733.301	595.1
754.951	617.38
776.509	649.38
797.977	649.56
819.355	634.74
840.644	581.01
861.844	522.92
882.955	474.92
903.979	450.01
924.916	438.28
945.766	432.47
966.529	421.1
987.208	413.19
1007.801	418.19
1028.309	433.83
1048.734	448.47
1069.075	445.56
1089.333	431.28
1109.509	406.74
1129.602	388.74
1149.614	384.47
1169.545	387.74
1189.395	388.56
1209.165	390.38
1228.856	388.38
1248.467	376.65
1268	355.19
1287.455	345.65
1306.832	345.56
1326.132	346.28
1345.354	336.74
1364.501	330.38
1383.572	318.56
1402.567	305.56
1421.487	297.65
1440.333	302.1
1459.104	305.83
1477.802	307.65
1496.426	310.47
1514.978	311.83
1533.457	312.1
1551.864	310.74
1570.199	301.19
1588.464	277.19
1606.657	264.38
1624.78	256.56
1642.834	254.83
1660.817	256.65
1678.732	260.01
1696.577	258.56
1714.355	247.47
1732.064	228.92
1749.705	209.83
1767.28	200.65
1784.787	197.56
1802.228	193.56
1819.603	183.28
1836.913	172.28
1854.156	169.28
1871.335	172.19
1888.449	173.01
1905.499	173.01
1922.485	173.47
1939.408	170.74
1956.267	160.65
1973.063	147.65
1989.797	136.92
2006.469	131.38
2023.078	125.37
2039.627	122.56
2056.114	120.38
2072.54	123.01
2088.906	122.56
2105.211	117.74
2121.457	109.38
2137.643	101.19
2153.77	94.01
2169.838	88.28
2185.848	83.56
2201.799	79.47
2217.693	78.19
2233.529	76.47
2249.307	72.38
2265.029	67.19
2280.694	62.47
2296.302	58.74
2311.854	74.47
2327.351	92.01
2342.792	88.38
2358.178	53.65
2373.508	42.92
2388.785	39.56
2404.007	38.19
2419.174	33.74
2434.289	30.83
2449.349	27.65
2464.356	25.83
2479.311	25.28
2494.213	22.83
2509.062	22.01
2523.859	19.83
2538.605	20.19
2553.299	17.92
2567.941	16.92
2582.533	13.65
2597.073	11.47
2611.564	7.56
2626.004	3.92
2640.394	1.19
2654.734	0.28
2669.025	-1.62
2683.266	-3.62
2697.458	-5.53
2711.602	-5.81
2725.697	-5.17
2739.744	-3.81
2753.743	-5.81
2767.695	-8.99
2781.598	-11.44
2795.455	-13.44
2809.264	-15.44
2823.026	-16.26
2836.742	-17.81
2850.412	-17.9
2864.035	-19.26
2877.613	-20.72
2891.145	-23.9
2904.631	-27.81
2918.073	-28.53
2931.469	-28.9
2944.821	-30.35
2958.128	-31.72
2971.39	-33.26
2984.609	-32.9
2997.784	-34.53
3010.915	-35.99
3024.002	-38.44
3037.046	-40.81
3050.048	-41.81
3063.006	-43.35
3075.922	-44.44
3088.795	-44.44
3101.627	-44.72
3114.416	-45.35
3127.163	-47.08
3139.869	-48.72
3152.533	-50.62
3165.157	-51.9
3177.739	-52.35
3190.28	-52.08
3202.781	-51.35
3215.241	-51.44
3227.661	-51.99
3240.041	-52.9
3252.382	-52.9
3264.682	-52.81
3276.943	-54.35
3289.165	-54.9
3301.348	-55.53
3313.492	-56.08
3325.597	-57.08
3337.663	-57.81
3349.691	-57.9
3361.681	-57.81
3373.633	-59.9
3385.547	-60.99
3397.424	-63.08
3409.263	-62.9
3421.065	-63.17
3432.829	-63.99
3444.557	-64.44
3456.247	-63.62
3467.902	-62.81
3479.519	-61.08
3491.101	-59.44
3502.646	-60.35
3514.155	-60.08
3525.629	-59.62
3537.067	-58.99
3548.469	-60.44
3559.837	-60.26
3571.169	-60.44
3582.466	-60.53
3593.728	-61.9
3604.956	-62.44
3616.149	-61.72
3627.307	-62.53
3638.432	-63.72
3649.523	-66.17
3660.579	-66.44
3671.602	-66.9
3682.591	-68.81
3693.547	-67.9
3704.47	-67.62
3715.359	-65.81
3726.216	-65.44
3737.039	-66.08
3747.83	-66.62
3758.589	-67.26
3769.315	-66.44
3780.008	-67.17
3790.67	-66.72
3801.299	-67.35
3811.897	-68.53
3822.463	-68.44
3832.998	-68.72
3843.501	-68.08
3853.973	-65.99
3864.414	-53.99
3874.823	-16.62
3885.202	-8.26
3895.55	-25.44
3905.868	-61.17
3916.155	-67.08
3926.411	-67.35
3936.638	-68.08
3946.834	-67.53
3957	-65.08
3967.137	-65.72
3977.244	-66.9
3987.321	-68.35
3997.369	-68.08
4007.388	-67.62
4017.377	-67.44
4027.338	-68.72
4037.269	-67.08
4047.172	-66.35
4057.046	-65.62
4066.891	-64.62
4076.708	-64.17
4086.497	-64.9
4096.257	-43.53
4105.989	-4.35
4115.694	-1.44
4125.37	-34.44
4135.019	-64.4
4142.237	-65.46

File: BC1-2 - 30s - I=1, bc=5_RamanShift_1.txt
Data from BC1-2 - 30s - I=1, bc=5_RamanShift_1.txt Node

Date: Thu Aug 24 11:55:28 IDT 2017
User: aro
Spectrometer: QEPB0276
Trigger mode: 0
Integration Time (sec): 3.000000E1
Scans to average: 1
Electric dark correction enabled: true
Nonlinearity correction enabled: false
Boxcar width: 5
XAxis mode: Raman Shifts
Number of Pixels in Spectrum: 1044
>>>>>Begin Spectral Data<<<<<
160.701	237.29
184.826	760.92
208.845	1343.4
232.758	1840.94
256.565	1993.03
280.267	2114.31
303.865	2213.67
327.359	2295.4
350.751	2387.67
374.04	2491.94
397.228	2787.22
420.315	2841.12
443.302	2775.12
466.189	2422.49
488.978	2209.31
511.668	1908.4
534.261	1594.31
556.756	1423.22
579.155	1363.49
601.459	1330.76
623.667	1356.58
645.781	1340.4
667.8	1287.58
689.726	1156.94
711.56	1118.94
733.301	1135.49
754.951	1152.85
776.509	1175.4
797.977	1164.22
819.355	1141.58
840.644	1082.49
861.844	1021.76
882.955	969.4
903.979	930.31
924.916	912.58
945.766	900.49
966.529	879.49
987.208	858.67
1007.801	861.22
1028.309	874.12
1048.734	873.67
1069.075	861.67
1089.333	846.03
1109.509	817.4
1129.602	791.03
1149.614	778.67
1169.545	777.58
1189.395	771.03
1209.165	766.31
1228.856	760.94
1248.467	738.12
1268	704.12
1287.455	684.03
1306.832	682.03
1326.132	680.12
1345.354	667.85
1364.501	648.49
1383.572	619.31
1402.567	591.67
1421.487	580.03
1440.333	587.49
1459.104	594.22
1477.802	597.03
1496.426	604.4
1514.978	607.4
1533.457	595.49
1551.864	573.03
1570.199	548.67
1588.464	515.67
1606.657	495.12
1624.78	483.31
1642.834	485.49
1660.817	496.49
1678.732	505.12
1696.577	497.94
1714.355	479.94
1732.064	449.85
1749.705	422.49
1767.28	404.85
1784.787	404.85
1802.228	397.31
1819.603	373.49
1836.913	351.12
1854.156	343.94
1871.335	351.12
1888.449	356.31
1905.499	362.4
1922.485	368.12
1939.408	363.49
1956.267	341.31
1973.063	309.4
1989.797	284.03
2006.469	270.49
2023.078	262.03
2039.627	257.49
2056.114	257.67
2072.54	262.31
2088.906	263.03
2105.211	254.31
2121.457	237.31
2137.643	219.94
2153.77	205.4
2169.838	191.76
2185.848	181.03
2201.799	172.58
2217.693	169.22
2233.529	163.85
2249.307	155.49
2265.029	145.94
2280.694	137.67
2296.302	129.12
2311.854	138.49
2327.351	152.94
2342.792	146.31
2358.178	111.58
2373.508	99.03
2388.785	93.49
2404.007	89.03
2419.174	84.76
2434.289	81.03
2449.349	75.67
2464.356	71.76
2479.311	69.49
2494.213	67.76
2509.062	67.76
2523.859	67.67
2538.605	68.49
2553.299	67.31
2567.941	63.94
2582.533	59.22
2597.073	55.22
2611.564	48.85
2626.004	41.4
2640.394	35.49
2654.734	32.58
2669.025	29.67
2683.266	25.12
2697.458	20.67
2711.602	18.76
2725.697	19.49
2739.744	20.03
2753.743	17.22
2767.695	13.76
2781.598	10.49
2795.455	7.58
2809.264	5.76
2823.026	4.85
2836.742	3.03
2850.412	1.4
2864.035	-1.06
2877.613	-4.6
2891.145	-9.06
2904.631	-15.42
2918.073	-17.97
2931.469	-21.06
2944.821	-22.69
2958.128	-24.78
2971.39	-26.24
2984.609	-27.06
2997.784	-29.88
3010.915	-31.6
3024.002	-34.88
3037.046	-37.51
3050.048	-38.6
3063.006	-39.33
3075.922	-39.42
3088.795	-39.78
3101.627	-40.6
3114.416	-42.69
3127.163	-43.69
3139.869	-45.33
3152.533	-46.6
3165.157	-47.88
3177.739	-49.97
3190.28	-51.24
3202.781	-51.97
3215.241	-52.06
3227.661	-53.6
3240.041	-54.6
3252.382	-56.78
3264.682	-56.33
3276.943	-56.42
3289.165	-57.33
3301.348	-58.78
3313.492	-59.42
3325.597	-59.97
3337.663	-60.51
3349.691	-60.51
3361.681	-60.69
3373.633	-62.6
3385.547	-63.24
3397.424	-63.97
3409.263	-64.42
3421.065	-65.15
3432.829	-65.88
3444.557	-66.42
3456.247	-66.42
3467.902	-66.15
3479.519	-65.33
3491.101	-65.78
3502.646	-66.6
3514.155	-67.97
3525.629	-67.33
3537.067	-67.24
3548.469	-68.51
3559.837	-68.69
3571.169	-67.15
3582.466	-67.97
3593.728	-68.88
3604.956	-68.42
3616.149	-66.33
3627.307	-65.24
3638.432	-65.78
3649.523	-67.78
3660.579	-68.33
3671.602	-69.6
3682.591	-72.24
3693.547	-71.97
3704.47	-71.69
3715.359	-70.06
3726.216	-70.6
3737.039	-71.69
3747.83	-72.78
3758.589	-70.88
3769.315	-69.69
3780.008	-69.97
3790.67	-70.6
3801.299	-71.15
3811.897	-71.15
3822.463	-70.69
3832.998	-71.06
3843.501	-71.97
3853.973	-70.97
3864.414	-62.6
3874.823	-29.24
3885.202	-21.42
3895.55	-36.51
3905.868	-68.88
3916.155	-73.78
3926.411	-73.88
3936.638	-74.97
3946.834	-74.24
3957	-72.06
3967.137	-72.42
3977.244	-71.69
3987.321	-71.6
3997.369	-70.6
4007.388	-72.06
4017.377	-71.6
4027.338	-71.33
4037.269	-69.51
4047.172	-70.15
4057.046	-71.24
4066.891	-71.06
4076.708	-70.06
4086.497	-69.97
4096.257	-50.97
4105.989	-15.33
4115.694	-13.6
4125.37	-42.97
4135.019	-70.88
4142.237	-71.04

File: BC107 - 30s - I=1, bc=5_RamanShift_1.txt
Data from BC107 - 30s - I=1, bc=5_RamanShift_1.txt Node

Date: Thu Aug 24 11:57:58 IDT 2017
User: aro
Spectrometer: QEPB0276
Trigger mode: 0
Integration Time (sec): 3.000000E1
Scans to average: 1
Electric dark correction enabled: true
Nonlinearity correction enabled: false
Boxcar width: 5
XAxis mode: Raman Shifts
Number of Pixels in Spectrum: 1044
>>>>>Begin Spectral Data<<<<<
160.701	212.21
184.826	696.38
208.845	1239.33
232.758	1698.69
256.565	1843.69
280.267	1966.88
303.865	2070.97
327.359	2150.42
350.751	2243.15
374.04	2353.06
397.228	2650.33
420.315	2702.42
443.302	2637.42
466.189	2293.15
488.978	2087.42
511.668	1802.69
534.261	1503.33
556.756	1338.24
579.155	1285.78
601.459	1255.88
623.667	1278.15
645.781	1284.15
667.8	1237.33
689.726	1112.97
711.56	1065.06
733.301	1081.24
754.951	1093.42
776.509	1113.33
797.977	1108.24
819.355	1090.15
840.644	1034.6
861.844	977.42
882.955	923.06
903.979	889.06
924.916	875.06
945.766	863.24
966.529	841.33
987.208	823.15
1007.801	830.6
1028.309	847.15
1048.734	850.24
1069.075	839.69
1089.333	822.15
1109.509	800.15
1129.602	775.88
1149.614	767.97
1169.545	768.15
1189.395	766.33
1209.165	767.6
1228.856	766.69
1248.467	748.15
1268	714.06
1287.455	699.24
1306.832	698.06
1326.132	691.6
1345.354	672.06
1364.501	655.69
1383.572	637.88
1402.567	617.51
1421.487	606.06
1440.333	611.69
1459.104	614.88
1477.802	610.97
1496.426	608.51
1514.978	606.69
1533.457	601.6
1551.864	593.15
1570.199	580.42
1588.464	554.6
1606.657	533.06
1624.78	518.33
1642.834	513.24
1660.817	514.78
1678.732	510.88
1696.577	491.88
1714.355	472.24
1732.064	451.24
1749.705	425.33
1767.28	406.69
1784.787	395.6
1802.228	388.69
1819.603	375.97
1836.913	364.42
1854.156	361.24
1871.335	362.88
1888.449	360.33
1905.499	355.97
1922.485	353.15
1939.408	347.24
1956.267	331.88
1973.063	311.06
1989.797	293.97
2006.469	284.78
2023.078	276.69
2039.627	266.88
2056.114	262.51
2072.54	263.97
2088.906	261.97
2105.211	251.88
2121.457	238.06
2137.643	227.33
2153.77	217.51
2169.838	207.78
2185.848	198.42
2201.799	192.42
2217.693	188.88
2233.529	184.97
2249.307	175.6
2265.029	167.24
2280.694	158.88
2296.302	152.33
2311.854	160.6
2327.351	175.88
2342.792	171.42
2358.178	140.78
2373.508	128.33
2388.785	124.24
2404.007	120.78
2419.174	118.06
2434.289	114.69
2449.349	110.24
2464.356	105.51
2479.311	101.51
2494.213	98.6
2509.062	96.42
2523.859	94.51
2538.605	92.06
2553.299	87.42
2567.941	84.15
2582.533	80.69
2597.073	75.06
2611.564	69.06
2626.004	63.6
2640.394	59.06
2654.734	54.78
2669.025	50.51
2683.266	46.78
2697.458	43.06
2711.602	39.15
2725.697	37.51
2739.744	35.78
2753.743	34.51
2767.695	30.24
2781.598	26.88
2795.455	24.78
2809.264	23.06
2823.026	21.42
2836.742	18.78
2850.412	16.88
2864.035	15.15
2877.613	12.6
2891.145	8.33
2904.631	2.88
2918.073	-0.31
2931.469	-1.49
2944.821	-4.58
2958.128	-6.4
2971.39	-8.85
2984.609	-11.4
2997.784	-13.85
3010.915	-14.12
3024.002	-16.76
3037.046	-19.85
3050.048	-21.67
3063.006	-24.22
3075.922	-24.67
3088.795	-24.22
3101.627	-25.67
3114.416	-28.12
3127.163	-30.49
3139.869	-31.12
3152.533	-32.03
3165.157	-33.12
3177.739	-34.31
3190.28	-34.85
3202.781	-34.85
3215.241	-35.31
3227.661	-38.12
3240.041	-41.4
3252.382	-42.76
3264.682	-42.85
3276.943	-42.76
3289.165	-43.67
3301.348	-46.12
3313.492	-48.03
3325.597	-49.94
3337.663	-51.4
3349.691	-50.67
3361.681	-49.85
3373.633	-50.94
3385.547	-52.58
3397.424	-53.67
3409.263	-53.76
3421.065	-53.22
3432.829	-53.12
3444.557	-53.12
3456.247	-53.31
3467.902	-53.31
3479.519	-52.76
3491.101	-53.4
3502.646	-53.31
3514.155	-52.85
3525.629	-51.94
3537.067	-53.76
3548.469	-55.22
3559.837	-54.94
3571.169	-54.76
3582.466	-55.85
3593.728	-56.67
3604.956	-56.58
3616.149	-55.67
3627.307	-56.22
3638.432	-57.22
3649.523	-58.76
3660.579	-59.49
3671.602	-60.03
3682.591	-61.85
3693.547	-60.67
3704.47	-60.49
3715.359	-59.4
3726.216	-59.58
3737.039	-59.85
3747.83	-59.94
3758.589	-59.12
3769.315	-57.85
3780.008	-56.67
3790.67	-56.49
3801.299	-57.67
3811.897	-58.4
3822.463	-58.31
3832.998	-58.76
3843.501	-60.49
3853.973	-61.58
3864.414	-54.4
3874.823	-27.31
3885.202	-22.4
3895.55	-34.31
3905.868	-59.76
3916.155	-62.76
3926.411	-62.31
3936.638	-61.22
3946.834	-60.22
3957	-58.4
3967.137	-58.31
3977.244	-57.67
3987.321	-58.4
3997.369	-57.94
4007.388	-58.22
4017.377	-57.76
4027.338	-60.4
4037.269	-59.67
4047.172	-60.94
4057.046	-60.12
4066.891	-60.76
4076.708	-59.76
4086.497	-59.76
4096.257	-43.67
4105.989	-14.67
4115.694	-13.31
4125.37	-37.76
4135.019	-59.9
4142.237	-59.96

File: BC107 - 30s - I=1, bc=5_RamanShift_2.txt
Data from BC107 - 30s - I=1, bc=5_RamanShift_2.txt Node

Date: Thu Aug 24 11:58:28 IDT 2017
User: aro
Spectrometer: QEPB0276
Trigger mode: 0
Integration Time (sec): 3.000000E1
Scans to average: 1
Electric dark correction enabled: true
Nonlinearity correction enabled: false
Boxcar width: 5
XAxis mode: Raman Shifts
Number of Pixels in Spectrum: 1044
>>>>>Begin Spectral Data<<<<<
160.701	207.29
184.826	688.12
208.845	1224.08
232.758	1682.62
256.565	1822.62
280.267	1945.53
303.865	2046.44
327.359	2131.17
350.751	2223.72
374.04	2334.35
397.228	2626.26
420.315	2683.81
443.302	2617.17
466.189	2273.26
488.978	2064.53
511.668	1774.81
534.261	1474.35
556.756	1313.72
579.155	1263.62
601.459	1230.99
623.667	1258.62
645.781	1244.26
667.8	1198.17
689.726	1076.35
711.56	1045.26
733.301	1063.08
754.951	1080.53
776.509	1098.17
797.977	1090.62
819.355	1070.35
840.644	1014.99
861.844	956.9
882.955	903.9
903.979	872.26
924.916	855.99
945.766	846.17
966.529	825.99
987.208	812.26
1007.801	817.9
1028.309	834.17
1048.734	835.35
1069.075	828.17
1089.333	813.53
1109.509	790.08
1129.602	767.62
1149.614	756.99
1169.545	760.17
1189.395	756.62
1209.165	757.17
1228.856	752.99
1248.467	736.35
1268	707.08
1287.455	691.53
1306.832	690.99
1326.132	684.26
1345.354	663.53
1364.501	643.9
1383.572	624.81
1402.567	609.08
1421.487	600.08
1440.333	605.08
1459.104	607.17
1477.802	601.72
1496.426	597.72
1514.978	597.08
1533.457	595.81
1551.864	590.17
1570.199	576.44
1588.464	548.08
1606.657	527.26
1624.78	511.99
1642.834	510.9
1660.817	516.17
1678.732	509.44
1696.577	493.17
1714.355	470.17
1732.064	447.08
1749.705	421.62
1767.28	405.08
1784.787	396.99
1802.228	388.62
1819.603	372.72
1836.913	358.9
1854.156	353.53
1871.335	355.17
1888.449	354.81
1905.499	352.72
1922.485	346.99
1939.408	339.81
1956.267	322.08
1973.063	301.53
1989.797	285.08
2006.469	277.9
2023.078	269.9
2039.627	262.35
2056.114	258.99
2072.54	258.08
2088.906	258.35
2105.211	247.99
2121.457	237.08
2137.643	225.17
2153.77	216.26
2169.838	204.81
2185.848	195.53
2201.799	188.72
2217.693	185.44
2233.529	182.17
2249.307	173.9
2265.029	165.44
2280.694	157.72
2296.302	150.26
2311.854	160.26
2327.351	175.26
2342.792	171.17
2358.178	139.08
2373.508	126.81
2388.785	122.9
2404.007	120.26
2419.174	118.35
2434.289	114.44
2449.349	109.72
2464.356	103.17
2479.311	100.72
2494.213	97.35
2509.062	95.44
2523.859	91.26
2538.605	88.9
2553.299	85.53
2567.941	81.08
2582.533	76.26
2597.073	70.9
2611.564	66.53
2626.004	61.44
2640.394	56.26
2654.734	52.72
2669.025	51.26
2683.266	46.72
2697.458	41.72
2711.602	37.62
2725.697	36.17
2739.744	34.9
2753.743	33.53
2767.695	30.62
2781.598	26.44
2795.455	24.53
2809.264	23.35
2823.026	23.26
2836.742	20.26
2850.412	17.63
2864.035	15.08
2877.613	11.9
2891.145	7.44
2904.631	1.62
2918.073	-0.83
2931.469	-3.01
2944.821	-5.56
2958.128	-8.56
2971.39	-10.83
2984.609	-13.1
2997.784	-15.19
3010.915	-16.92
3024.002	-20.83
3037.046	-24.1
3050.048	-25.1
3063.006	-24.01
3075.922	-23.65
3088.795	-23.56
3101.627	-23.92
3114.416	-26.56
3127.163	-28.47
3139.869	-30.56
3152.533	-32.01
3165.157	-33.92
3177.739	-35.65
3190.28	-36.1
3202.781	-35.92
3215.241	-35.92
3227.661	-37.19
3240.041	-39.47
3252.382	-40.56
3264.682	-42.1
3276.943	-42.56
3289.165	-43.83
3301.348	-45.92
3313.492	-48.19
3325.597	-50.28
3337.663	-51.28
3349.691	-52.1
3361.681	-52.19
3373.633	-53.47
3385.547	-53.92
3397.424	-54.65
3409.263	-54.28
3421.065	-54.1
3432.829	-54.38
3444.557	-54.01
3456.247	-54.1
3467.902	-53.1
3479.519	-53.47
3491.101	-54.38
3502.646	-55.28
3514.155	-53.83
3525.629	-52.47
3537.067	-52.74
3548.469	-54.38
3559.837	-55.19
3571.169	-55.38
3582.466	-56.47
3593.728	-57.19
3604.956	-57.01
3616.149	-56.38
3627.307	-56.19
3638.432	-57.38
3649.523	-58.74
3660.579	-58.65
3671.602	-58.1
3682.591	-59.1
3693.547	-58.92
3704.47	-58.56
3715.359	-57.65
3726.216	-58.1
3737.039	-59.47
3747.83	-60.1
3758.589	-60.56
3769.315	-59.74
3780.008	-60.56
3790.67	-59.56
3801.299	-61.01
3811.897	-62.28
3822.463	-61.56
3832.998	-61.65
3843.501	-60.74
3853.973	-60.19
3864.414	-52.83
3874.823	-25.47
3885.202	-19.47
3895.55	-30.01
3905.868	-55.47
3916.155	-60.65
3926.411	-61.56
3936.638	-61.92
3946.834	-60.83
3957	-59.19
3967.137	-59.65
3977.244	-59.1
3987.321	-60.83
3997.369	-60.56
4007.388	-61.28
4017.377	-61.47
4027.338	-63.01
4037.269	-60.83
4047.172	-60.83
4057.046	-59.83
4066.891	-60.28
4076.708	-58.74
4086.497	-60.01
4096.257	-45.65
4105.989	-18.19
4115.694	-16.19
4125.37	-38.1
4135.019	-58.82
4142.237	-58.21