Folder: Water/Data/Raman/2017-08-24 - Glass, alluminum 108/Aluminum II [full set] (part 4)

File: Alu-EC1-2 30s,I=1, BC=3, 1sta _RamanShift_1.txt
Data from Alu-EC1-2 30s,I=1, BC=3, 1sta _RamanShift_1.txt Node

Date: Thu Aug 24 13:32:51 IDT 2017
User: aro
Spectrometer: QEPB0276
Trigger mode: 0
Integration Time (sec): 3.000000E1
Scans to average: 1
Electric dark correction enabled: true
Nonlinearity correction enabled: false
Boxcar width: 5
XAxis mode: Raman Shifts
Number of Pixels in Spectrum: 1044
>>>>>Begin Spectral Data<<<<<
160.701	242.38
184.826	757.77
208.845	1320.65
232.758	1790.19
256.565	1920.92
280.267	2037.47
303.865	2133.19
327.359	2213.56
350.751	2309.19
374.04	2421.47
397.228	2737.56
420.315	2797.38
443.302	2714.38
466.189	2335.38
488.978	2103.47
511.668	1781.19
534.261	1434.56
556.756	1243.1
579.155	1184.47
601.459	1152.92
623.667	1187.65
645.781	1173.47
667.8	1125.38
689.726	986.92
711.56	949.19
733.301	961.01
754.951	977.19
776.509	1012.01
797.977	1012.19
819.355	993.83
840.644	936.1
861.844	869.92
882.955	814.83
903.979	782.1
924.916	769.38
945.766	760.01
966.529	741.28
987.208	728.38
1007.801	735.28
1028.309	751.83
1048.734	758.01
1069.075	750.83
1089.333	733.83
1109.509	707.38
1129.602	679.01
1149.614	669.38
1169.545	667.83
1189.395	664.74
1209.165	661.56
1228.856	658.19
1248.467	639.38
1268	608.28
1287.455	592.19
1306.832	594.1
1326.132	582.1
1345.354	546.19
1364.501	520.19
1383.572	500.38
1402.567	486.19
1421.487	483.65
1440.333	495.38
1459.104	494.37
1477.802	475.38
1496.426	448.38
1514.978	429.01
1533.457	423.47
1551.864	431.65
1570.199	432.83
1588.464	414.56
1606.657	401.01
1624.78	388.83
1642.834	386.1
1660.817	380.38
1678.732	362.65
1696.577	332.56
1714.355	306.38
1732.064	290.38
1749.705	282.1
1767.28	267.83
1784.787	249.1
1802.228	232.38
1819.603	223.19
1836.913	221.47
1854.156	220.28
1871.335	216.83
1888.449	213.38
1905.499	205.28
1922.485	193.92
1939.408	180.47
1956.267	169.56
1973.063	160.19
1989.797	155.28
2006.469	155.74
2023.078	149.74
2039.627	142.83
2056.114	139.56
2072.54	138.1
2088.906	134.38
2105.211	123.83
2121.457	116.38
2137.643	112.47
2153.77	107.47
2169.838	102.83
2185.848	98.01
2201.799	96.65
2217.693	96.01
2233.529	94.01
2249.307	88.19
2265.029	83.1
2280.694	78.74
2296.302	76.1
2311.854	87.65
2327.351	106.19
2342.792	101.92
2358.178	74.01
2373.508	65.47
2388.785	65.74
2404.007	62.1
2419.174	58.19
2434.289	55.56
2449.349	52.19
2464.356	47.83
2479.311	42.56
2494.213	39.56
2509.062	37.01
2523.859	33.65
2538.605	29.19
2553.299	25.92
2567.941	22.83
2582.533	19.56
2597.073	18.19
2611.564	15.1
2626.004	12.01
2640.394	5.92
2654.734	3.56
2669.025	2.19
2683.266	1.01
2697.458	-1.08
2711.602	-3.62
2725.697	-4.81
2739.744	-6.9
2753.743	-12.26
2767.695	-17.17
2781.598	-20.53
2795.455	-21.35
2809.264	-20.62
2823.026	-19.72
2836.742	-20.08
2850.412	-21.81
2864.035	-23.17
2877.613	-24.62
2891.145	-28.26
2904.631	-33.17
2918.073	-36.9
2931.469	-37.99
2944.821	-38.99
2958.128	-38.53
2971.39	-39.53
2984.609	-39.62
2997.784	-41.9
3010.915	-45.62
3024.002	-48.17
3037.046	-51.26
3050.048	-52.08
3063.006	-50.35
3075.922	-49.72
3088.795	-48.9
3101.627	-50.17
3114.416	-51.9
3127.163	-55.26
3139.869	-57.72
3152.533	-58.81
3165.157	-59.99
3177.739	-61.08
3190.28	-60.44
3202.781	-58.62
3215.241	-57.9
3227.661	-59.99
3240.041	-63.9
3252.382	-65.17
3264.682	-67.44
3276.943	-66.9
3289.165	-66.44
3301.348	-65.62
3313.492	-65.53
3325.597	-66.35
3337.663	-66.9
3349.691	-67.99
3361.681	-70.53
3373.633	-73.35
3385.547	-73.08
3397.424	-71.72
3409.263	-70.35
3421.065	-70.44
3432.829	-69.53
3444.557	-69.53
3456.247	-70.35
3467.902	-71.72
3479.519	-73.44
3491.101	-73.35
3502.646	-72.62
3514.155	-71.17
3525.629	-70.53
3537.067	-69.62
3548.469	-70.53
3559.837	-72.08
3571.169	-73.17
3582.466	-73.53
3593.728	-73.72
3604.956	-74.53
3616.149	-73.72
3627.307	-73.72
3638.432	-73.26
3649.523	-74.72
3660.579	-76.35
3671.602	-78.26
3682.591	-78.53
3693.547	-77.08
3704.47	-76.26
3715.359	-77.72
3726.216	-78.9
3737.039	-78.99
3747.83	-77.44
3758.589	-76.99
3769.315	-76.72
3780.008	-80.44
3790.67	-81.72
3801.299	-80.26
3811.897	-78.44
3822.463	-78.72
3832.998	-79.9
3843.501	-78.17
3853.973	-75.72
3864.414	-62.26
3874.823	-13.99
3885.202	-3.62
3895.55	-24.35
3905.868	-71.72
3916.155	-79.35
3926.411	-79.62
3936.638	-78.62
3946.834	-77.53
3957	-75.72
3967.137	-74.53
3977.244	-75.81
3987.321	-75.44
3997.369	-76.62
4007.388	-78.26
4017.377	-79.17
4027.338	-79.81
4037.269	-79.44
4047.172	-77.17
4057.046	-75.72
4066.891	-74.99
4076.708	-76.17
4086.497	-78.17
4096.257	-55.35
4105.989	-11.62
4115.694	-11.9
4125.37	-48.35
4135.019	-82.18
4142.237	-81.79

File: Alu-EC1-2 30s,I=1, BC=3, 1sta _RamanShift_2.txt
Data from Alu-EC1-2 30s,I=1, BC=3, 1sta _RamanShift_2.txt Node

Date: Thu Aug 24 13:33:21 IDT 2017
User: aro
Spectrometer: QEPB0276
Trigger mode: 0
Integration Time (sec): 3.000000E1
Scans to average: 1
Electric dark correction enabled: true
Nonlinearity correction enabled: false
Boxcar width: 5
XAxis mode: Raman Shifts
Number of Pixels in Spectrum: 1044
>>>>>Begin Spectral Data<<<<<
160.701	233.38
184.826	725.27
208.845	1263.38
232.758	1712.19
256.565	1836.38
280.267	1947.01
303.865	2042.19
327.359	2124.92
350.751	2218.74
374.04	2337.92
397.228	2659.01
420.315	2720.19
443.302	2640.56
466.189	2257.47
488.978	2026.74
511.668	1705.56
534.261	1363.19
556.756	1172.38
579.155	1113.01
601.459	1082.65
623.667	1123.47
645.781	1115.56
667.8	1069.19
689.726	930.01
711.56	890.19
733.301	900.38
754.951	920.28
776.509	953.83
797.977	959.74
819.355	943.74
840.644	883.38
861.844	816.1
882.955	761.1
903.979	728.28
924.916	713.56
945.766	706.1
966.529	690.56
987.208	674.56
1007.801	681.01
1028.309	698.65
1048.734	708.47
1069.075	704.47
1089.333	688.1
1109.509	663.74
1129.602	636.01
1149.614	628.19
1169.545	629.65
1189.395	627.01
1209.165	623.74
1228.856	621.92
1248.467	601.47
1268	571.01
1287.455	552.83
1306.832	551.92
1326.132	544.56
1345.354	514.74
1364.501	481.83
1383.572	465.65
1402.567	457.83
1421.487	460.01
1440.333	468.28
1459.104	466.01
1477.802	447.1
1496.426	425.65
1514.978	411.83
1533.457	408.47
1551.864	412.56
1570.199	413.65
1588.464	396.56
1606.657	383.47
1624.78	370.74
1642.834	367.92
1660.817	365.38
1678.732	348.19
1696.577	320.38
1714.355	296.38
1732.064	282.92
1749.705	270.1
1767.28	256.83
1784.787	240.28
1802.228	225.28
1819.603	213.1
1836.913	210.1
1854.156	211.47
1871.335	209.47
1888.449	204.56
1905.499	196.1
1922.485	185.65
1939.408	174.1
1956.267	163.47
1973.063	155.65
1989.797	153.1
2006.469	152.28
2023.078	148.47
2039.627	139.28
2056.114	134.38
2072.54	131.28
2088.906	127.74
2105.211	120.38
2121.457	116.83
2137.643	113.01
2153.77	107.28
2169.838	99.38
2185.848	93.56
2201.799	90.28
2217.693	88.65
2233.529	86.01
2249.307	84.19
2265.029	81.01
2280.694	79.01
2296.302	75.1
2311.854	88.01
2327.351	104.19
2342.792	101.83
2358.178	70.65
2373.508	61.83
2388.785	59.56
2404.007	57.56
2419.174	56.1
2434.289	52.83
2449.349	49.74
2464.356	44.83
2479.311	40.56
2494.213	36.65
2509.062	32.56
2523.859	30.01
2538.605	27.19
2553.299	26.56
2567.941	23.28
2582.533	19.1
2597.073	15.28
2611.564	13.01
2626.004	10.28
2640.394	5.65
2654.734	4.1
2669.025	2.83
2683.266	1.74
2697.458	-1.35
2711.602	-3.99
2725.697	-7.17
2739.744	-9.08
2753.743	-12.26
2767.695	-16.08
2781.598	-17.81
2795.455	-19.26
2809.264	-19.17
2823.026	-19.72
2836.742	-19.81
2850.412	-22.17
2864.035	-23.35
2877.613	-24.81
2891.145	-27.9
2904.631	-31.62
2918.073	-32.99
2931.469	-33.26
2944.821	-35.17
2958.128	-37.26
2971.39	-40.9
2984.609	-42.44
2997.784	-44.44
3010.915	-45.99
3024.002	-46.62
3037.046	-48.62
3050.048	-47.99
3063.006	-48.26
3075.922	-48.26
3088.795	-48.9
3101.627	-51.35
3114.416	-53.53
3127.163	-56.62
3139.869	-57.72
3152.533	-58.35
3165.157	-57.9
3177.739	-58.26
3190.28	-57.72
3202.781	-57.81
3215.241	-59.62
3227.661	-62.08
3240.041	-64.08
3252.382	-64.62
3264.682	-66.08
3276.943	-66.08
3289.165	-64.44
3301.348	-64.53
3313.492	-63.08
3325.597	-64.81
3337.663	-64.99
3349.691	-66.81
3361.681	-67.99
3373.633	-70.62
3385.547	-71.53
3397.424	-70.9
3409.263	-70.62
3421.065	-70.35
3432.829	-68.99
3444.557	-68.26
3456.247	-67.44
3467.902	-67.9
3479.519	-69.72
3491.101	-71.26
3502.646	-71.26
3514.155	-72.08
3525.629	-71.53
3537.067	-69.99
3548.469	-69.81
3559.837	-70.53
3571.169	-69.9
3582.466	-69.44
3593.728	-70.72
3604.956	-73.26
3616.149	-73.53
3627.307	-74.35
3638.432	-74.26
3649.523	-75.44
3660.579	-75.26
3671.602	-74.26
3682.591	-72.62
3693.547	-72.72
3704.47	-74.72
3715.359	-77.17
3726.216	-78.99
3737.039	-78.08
3747.83	-74.81
3758.589	-73.44
3769.315	-74.53
3780.008	-78.35
3790.67	-78.99
3801.299	-76.81
3811.897	-74.53
3822.463	-76.53
3832.998	-77.72
3843.501	-75.9
3853.973	-73.62
3864.414	-60.81
3874.823	-10.99
3885.202	-0.53
3895.55	-20.9
3905.868	-68.9
3916.155	-75.35
3926.411	-76.26
3936.638	-75.35
3946.834	-74.17
3957	-72.81
3967.137	-73.35
3977.244	-74.72
3987.321	-75.17
3997.369	-75.17
4007.388	-76.26
4017.377	-76.62
4027.338	-77.44
4037.269	-75.17
4047.172	-73.99
4057.046	-73.81
4066.891	-75.08
4076.708	-76.35
4086.497	-77.35
4096.257	-53.17
4105.989	-9.72
4115.694	-10.35
4125.37	-45.81
4135.019	-78.29
4142.237	-76.29

File: Alu-EC1-2 30s,I=1, BC=3, 1sta _RamanShift_3.txt
Data from Alu-EC1-2 30s,I=1, BC=3, 1sta _RamanShift_3.txt Node

Date: Thu Aug 24 13:33:51 IDT 2017
User: aro
Spectrometer: QEPB0276
Trigger mode: 0
Integration Time (sec): 3.000000E1
Scans to average: 1
Electric dark correction enabled: true
Nonlinearity correction enabled: false
Boxcar width: 5
XAxis mode: Raman Shifts
Number of Pixels in Spectrum: 1044
>>>>>Begin Spectral Data<<<<<
160.701	229.08
184.826	705.15
208.845	1230.2
232.758	1667.2
256.565	1792.75
280.267	1902.3
303.865	1998.93
327.359	2077.2
350.751	2178.75
374.04	2295.66
397.228	2621.75
420.315	2677.11
443.302	2600.02
466.189	2215.93
488.978	1985.57
511.668	1664.84
534.261	1320.02
556.756	1130.93
579.155	1068.3
601.459	1040.11
623.667	1084.39
645.781	1079.02
667.8	1031.2
689.726	891.48
711.56	852.11
733.301	862.57
754.951	880.48
776.509	914.2
797.977	917.84
819.355	904.66
840.644	846.66
861.844	784.3
882.955	727.02
903.979	694.93
924.916	681.3
945.766	672.2
966.529	655.66
987.208	643.2
1007.801	653.3
1028.309	671.75
1048.734	678.93
1069.075	673.11
1089.333	659.66
1109.509	633.57
1129.602	607.02
1149.614	597.3
1169.545	599.66
1189.395	599.75
1209.165	598.11
1228.856	593.48
1248.467	572.75
1268	542.3
1287.455	527.39
1306.832	530.11
1326.132	520.84
1345.354	491.3
1364.501	463.75
1383.572	447.84
1402.567	439.39
1421.487	438.84
1440.333	447.66
1459.104	448.84
1477.802	431.3
1496.426	410.3
1514.978	396.2
1533.457	396.48
1551.864	403.39
1570.199	401.48
1588.464	384.02
1606.657	368.75
1624.78	356.3
1642.834	353.66
1660.817	352.39
1678.732	337.93
1696.577	311.39
1714.355	286.48
1732.064	271.66
1749.705	261.84
1767.28	249.02
1784.787	235.75
1802.228	222.3
1819.603	211.66
1836.913	205.75
1854.156	204.84
1871.335	202.75
1888.449	200.84
1905.499	193.11
1922.485	185.02
1939.408	173.75
1956.267	164.11
1973.063	154.57
1989.797	150.93
2006.469	149.93
2023.078	144.75
2039.627	136.2
2056.114	131.84
2072.54	130.66
2088.906	127.66
2105.211	119.57
2121.457	112.48
2137.643	108.02
2153.77	102.48
2169.838	96.48
2185.848	91.2
2201.799	88.02
2217.693	86.48
2233.529	85.84
2249.307	83.39
2265.029	79.11
2280.694	76.2
2296.302	73.84
2311.854	85.75
2327.351	102.39
2342.792	98.3
2358.178	67.48
2373.508	57.93
2388.785	58.02
2404.007	56.75
2419.174	53.75
2434.289	50.75
2449.349	49.11
2464.356	44.93
2479.311	38.66
2494.213	35.66
2509.062	33.48
2523.859	29.57
2538.605	24.66
2553.299	22.57
2567.941	20.93
2582.533	18.3
2597.073	15.66
2611.564	13.11
2626.004	9.66
2640.394	5.84
2654.734	2.66
2669.025	0.3
2683.266	-1.34
2697.458	-2.43
2711.602	-4.61
2725.697	-6.16
2739.744	-7.34
2753.743	-11.61
2767.695	-15.89
2781.598	-19.25
2795.455	-19.7
2809.264	-19.25
2823.026	-18.98
2836.742	-20.34
2850.412	-21.07
2864.035	-19.8
2877.613	-23.25
2891.145	-28.43
2904.631	-33.61
2918.073	-34.8
2931.469	-35.16
2944.821	-35.25
2958.128	-35.7
2971.39	-37.25
2984.609	-39.16
2997.784	-42.7
3010.915	-45.8
3024.002	-46.43
3037.046	-47.89
3050.048	-46.43
3063.006	-47.34
3075.922	-47.8
3088.795	-49.34
3101.627	-52.7
3114.416	-54.07
3127.163	-56.16
3139.869	-56.16
3152.533	-56.7
3165.157	-55.8
3177.739	-55.25
3190.28	-55.8
3202.781	-56.89
3215.241	-58.89
3227.661	-60.43
3240.041	-63.61
3252.382	-64.43
3264.682	-65.8
3276.943	-63.7
3289.165	-62.16
3301.348	-62.07
3313.492	-61.43
3325.597	-62.98
3337.663	-63.52
3349.691	-65.07
3361.681	-67.7
3373.633	-69.25
3385.547	-69.89
3397.424	-69.07
3409.263	-69.52
3421.065	-68.7
3432.829	-67.8
3444.557	-67.43
3456.247	-66.7
3467.902	-66.98
3479.519	-68.89
3491.101	-71.07
3502.646	-70.8
3514.155	-70.61
3525.629	-70.07
3537.067	-68.25
3548.469	-67.7
3559.837	-68.89
3571.169	-69.52
3582.466	-68.98
3593.728	-70.07
3604.956	-71.98
3616.149	-73.34
3627.307	-73.98
3638.432	-72.89
3649.523	-72.98
3660.579	-72.43
3671.602	-73.52
3682.591	-74.16
3693.547	-73.8
3704.47	-73.89
3715.359	-75.25
3726.216	-77.8
3737.039	-77.43
3747.83	-76.34
3758.589	-74.8
3769.315	-73.98
3780.008	-76.98
3790.67	-77.25
3801.299	-76.43
3811.897	-74.98
3822.463	-76.7
3832.998	-78.8
3843.501	-77.52
3853.973	-75.07
3864.414	-59.98
3874.823	-5.07
3885.202	7.75
3895.55	-13.52
3905.868	-65.8
3916.155	-73.7
3926.411	-75.8
3936.638	-75.89
3946.834	-74.8
3957	-72.07
3967.137	-71.07
3977.244	-71.8
3987.321	-73.07
3997.369	-74.16
4007.388	-75.7
4017.377	-76.34
4027.338	-75.89
4037.269	-73.52
4047.172	-71.98
4057.046	-72.16
4066.891	-73.07
4076.708	-74.16
4086.497	-76.16
4096.257	-51.7
4105.989	-7.25
4115.694	-8.8
4125.37	-44.89
4135.019	-78.69
4142.237	-77.08

File: Alu-EC107 30s,I=1, BC=3, 1sta _RamanShift_1.txt
Data from Alu-EC107 30s,I=1, BC=3, 1sta _RamanShift_1.txt Node

Date: Thu Aug 24 13:34:51 IDT 2017
User: aro
Spectrometer: QEPB0276
Trigger mode: 0
Integration Time (sec): 3.000000E1
Scans to average: 1
Electric dark correction enabled: true
Nonlinearity correction enabled: false
Boxcar width: 5
XAxis mode: Raman Shifts
Number of Pixels in Spectrum: 1044
>>>>>Begin Spectral Data<<<<<
160.701	187.83
184.826	576.9
208.845	1000.82
232.758	1356.27
256.565	1460.64
280.267	1565.73
303.865	1657.45
327.359	1732.09
350.751	1821.18
374.04	1933.27
397.228	2239.64
420.315	2301.55
443.302	2232.64
466.189	1877
488.978	1667
511.668	1377.27
534.261	1073.09
556.756	907.55
579.155	853.45
601.459	827.73
623.667	869.91
645.781	865.45
667.8	824.09
689.726	695.09
711.56	661.18
733.301	676.27
754.951	698.18
776.509	729.91
797.977	729.82
819.355	715.55
840.644	665
861.844	607.09
882.955	561.27
903.979	533.91
924.916	520.45
945.766	513.27
966.529	501.09
987.208	491.09
1007.801	496.64
1028.309	510.45
1048.734	520.55
1069.075	518
1089.333	504.73
1109.509	482.18
1129.602	462.91
1149.614	454.27
1169.545	457.91
1189.395	459.27
1209.165	460.09
1228.856	456.82
1248.467	440.73
1268	416.45
1287.455	405.73
1306.832	406
1326.132	403.55
1345.354	391.45
1364.501	377
1383.572	363.73
1402.567	348.27
1421.487	343.09
1440.333	349.09
1459.104	354
1477.802	350.73
1496.426	349.27
1514.978	347.55
1533.457	348.36
1551.864	348.18
1570.199	339
1588.464	317.64
1606.657	303
1624.78	295.64
1642.834	294.55
1660.817	296.18
1678.732	296.36
1696.577	286.64
1714.355	273.64
1732.064	256.09
1749.705	242.73
1767.28	235
1784.787	229.09
1802.228	221.45
1819.603	207.64
1836.913	196.45
1854.156	191.36
1871.335	192.55
1888.449	194
1905.499	195.82
1922.485	196.55
1939.408	193.82
1956.267	182.91
1973.063	166.73
1989.797	153.45
2006.469	148.27
2023.078	143
2039.627	136.36
2056.114	135.91
2072.54	138.82
2088.906	140.45
2105.211	134.36
2121.457	127.91
2137.643	120.82
2153.77	112.73
2169.838	103.09
2185.848	94.91
2201.799	92.36
2217.693	90.82
2233.529	89.82
2249.307	86.82
2265.029	83.45
2280.694	79.82
2296.302	75.18
2311.854	86.18
2327.351	101.91
2342.792	98.27
2358.178	67.18
2373.508	54.91
2388.785	52.73
2404.007	50.55
2419.174	49.18
2434.289	47.82
2449.349	45
2464.356	42.27
2479.311	38.91
2494.213	37
2509.062	35.09
2523.859	32.45
2538.605	31
2553.299	32.09
2567.941	31.09
2582.533	28.73
2597.073	24.91
2611.564	21.27
2626.004	16.36
2640.394	11.18
2654.734	7.45
2669.025	6
2683.266	4.82
2697.458	4.36
2711.602	2.64
2725.697	2.45
2739.744	1.64
2753.743	-0.18
2767.695	-4.18
2781.598	-7.18
2795.455	-8.82
2809.264	-9.45
2823.026	-7.91
2836.742	-8.91
2850.412	-11.55
2864.035	-12.82
2877.613	-15.27
2891.145	-19.27
2904.631	-23.09
2918.073	-24.64
2931.469	-24
2944.821	-25.82
2958.128	-25
2971.39	-26.27
2984.609	-27.91
2997.784	-29.82
3010.915	-31.18
3024.002	-32.36
3037.046	-35.27
3050.048	-34.91
3063.006	-35.55
3075.922	-36.18
3088.795	-37.55
3101.627	-39.09
3114.416	-40.36
3127.163	-41.09
3139.869	-41.82
3152.533	-43.09
3165.157	-43.73
3177.739	-43.64
3190.28	-44.82
3202.781	-46.64
3215.241	-48.82
3227.661	-49.55
3240.041	-50.18
3252.382	-49.73
3264.682	-50.36
3276.943	-50
3289.165	-49.82
3301.348	-50.82
3313.492	-50.45
3325.597	-50.91
3337.663	-50.73
3349.691	-53.09
3361.681	-55.18
3373.633	-57.18
3385.547	-57.27
3397.424	-55.91
3409.263	-55.45
3421.065	-54.55
3432.829	-53.55
3444.557	-52.73
3456.247	-53.18
3467.902	-54.27
3479.519	-55.91
3491.101	-58.18
3502.646	-58.55
3514.155	-57.64
3525.629	-55.91
3537.067	-54.36
3548.469	-54
3559.837	-55.36
3571.169	-57.45
3582.466	-58.73
3593.728	-61
3604.956	-61.36
3616.149	-61.27
3627.307	-61.82
3638.432	-61.55
3649.523	-61
3660.579	-60.27
3671.602	-60.36
3682.591	-60
3693.547	-60.27
3704.47	-61
3715.359	-63.91
3726.216	-64.09
3737.039	-63
3747.83	-60.09
3758.589	-60
3769.315	-61.27
3780.008	-65.73
3790.67	-65.82
3801.299	-64.09
3811.897	-62
3822.463	-63
3832.998	-64
3843.501	-62
3853.973	-58.82
3864.414	-47.45
3874.823	-5.82
3885.202	2.73
3895.55	-15.09
3905.868	-56.27
3916.155	-62
3926.411	-62.82
3936.638	-61.18
3946.834	-60.27
3957	-58.82
3967.137	-59.64
3977.244	-61.55
3987.321	-61.64
3997.369	-61.55
4007.388	-62.27
4017.377	-61.64
4027.338	-61.73
4037.269	-61.45
4047.172	-60.09
4057.046	-60.55
4066.891	-60.82
4076.708	-62.64
4086.497	-63.45
4096.257	-42.18
4105.989	-4.55
4115.694	-4.45
4125.37	-35.64
4135.019	-64.33
4142.237	-64.67

File: Alu-EC107 30s,I=1, BC=3, 1sta _RamanShift_2.txt
Data from Alu-EC107 30s,I=1, BC=3, 1sta _RamanShift_2.txt Node

Date: Thu Aug 24 13:35:21 IDT 2017
User: aro
Spectrometer: QEPB0276
Trigger mode: 0
Integration Time (sec): 3.000000E1
Scans to average: 1
Electric dark correction enabled: true
Nonlinearity correction enabled: false
Boxcar width: 5
XAxis mode: Raman Shifts
Number of Pixels in Spectrum: 1044
>>>>>Begin Spectral Data<<<<<
160.701	185.88
184.826	561.77
208.845	973.6
232.758	1317.69
256.565	1421.51
280.267	1522.42
303.865	1611.6
327.359	1683.97
350.751	1778.15
374.04	1893.33
397.228	2201.51
420.315	2259.06
443.302	2190.24
466.189	1834.51
488.978	1631.42
511.668	1339.78
534.261	1036.06
556.756	868.97
579.155	821.15
601.459	796.69
623.667	838.6
645.781	833.88
667.8	790.69
689.726	664.51
711.56	632.24
733.301	652.69
754.951	673.88
776.509	707.51
797.977	707.6
819.355	692.15
840.644	639.15
861.844	583.42
882.955	536.88
903.979	510.88
924.916	498.69
945.766	492.78
966.529	481.15
987.208	471.42
1007.801	476.15
1028.309	489.15
1048.734	499.24
1069.075	499.06
1089.333	485.06
1109.509	464.6
1129.602	444.97
1149.614	441.15
1169.545	441.42
1189.395	441.33
1209.165	439.33
1228.856	440.33
1248.467	424.33
1268	405.42
1287.455	392.51
1306.832	395.15
1326.132	392.24
1345.354	380.78
1364.501	368.06
1383.572	353.24
1402.567	339.51
1421.487	333.6
1440.333	340.06
1459.104	344.6
1477.802	343.33
1496.426	343.69
1514.978	342.78
1533.457	340.6
1551.864	336.88
1570.199	328.88
1588.464	308.6
1606.657	295.97
1624.78	287.06
1642.834	286.15
1660.817	290.42
1678.732	291.78
1696.577	284.33
1714.355	273.78
1732.064	255.51
1749.705	238.6
1767.28	228.33
1784.787	223.69
1802.228	217.42
1819.603	202.78
1836.913	190.78
1854.156	186.15
1871.335	186.51
1888.449	189.6
1905.499	189.88
1922.485	192.69
1939.408	188.42
1956.267	177.15
1973.063	162.6
1989.797	149.69
2006.469	144.6
2023.078	137.97
2039.627	133.51
2056.114	135.51
2072.54	139.6
2088.906	139.33
2105.211	130.78
2121.457	121.69
2137.643	114.24
2153.77	107.97
2169.838	100.42
2185.848	93.42
2201.799	89.88
2217.693	88.42
2233.529	87.78
2249.307	84.6
2265.029	80.69
2280.694	77.69
2296.302	73.33
2311.854	84.06
2327.351	101.15
2342.792	97.15
2358.178	66.6
2373.508	56.06
2388.785	53.24
2404.007	49.06
2419.174	44.6
2434.289	42.42
2449.349	40.97
2464.356	38.69
2479.311	36.42
2494.213	35.33
2509.062	33.78
2523.859	31.15
2538.605	28.33
2553.299	27.42
2567.941	25.78
2582.533	23.78
2597.073	21.88
2611.564	20.6
2626.004	17.97
2640.394	13.88
2654.734	9.06
2669.025	5.42
2683.266	2.78
2697.458	0.6
2711.602	0.42
2725.697	2.24
2739.744	2.97
2753.743	1.6
2767.695	-2.94
2781.598	-6.03
2795.455	-8.67
2809.264	-9.58
2823.026	-9.76
2836.742	-10.58
2850.412	-10.4
2864.035	-10.03
2877.613	-11.4
2891.145	-16.03
2904.631	-21.12
2918.073	-24.4
2931.469	-25.58
2944.821	-26.94
2958.128	-26.49
2971.39	-26.67
2984.609	-25.85
2997.784	-27.58
3010.915	-29.76
3024.002	-33.03
3037.046	-35.85
3050.048	-35.58
3063.006	-35.49
3075.922	-36.22
3088.795	-38.12
3101.627	-40.22
3114.416	-40.76
3127.163	-41.49
3139.869	-41.67
3152.533	-42.94
3165.157	-42.76
3177.739	-44.22
3190.28	-45.03
3202.781	-45.85
3215.241	-46.4
3227.661	-48.4
3240.041	-49.22
3252.382	-49.76
3264.682	-49.76
3276.943	-49.22
3289.165	-48.94
3301.348	-49.58
3313.492	-50.31
3325.597	-51.94
3337.663	-53.31
3349.691	-53.67
3361.681	-54.85
3373.633	-55.49
3385.547	-54.49
3397.424	-54.22
3409.263	-54.67
3421.065	-54.85
3432.829	-53.85
3444.557	-53.49
3456.247	-54.03
3467.902	-54.76
3479.519	-56.58
3491.101	-58.03
3502.646	-57.94
3514.155	-57.58
3525.629	-56.76
3537.067	-57.03
3548.469	-58.22
3559.837	-59.31
3571.169	-59.76
3582.466	-59.58
3593.728	-59.67
3604.956	-59.94
3616.149	-59.67
3627.307	-60.67
3638.432	-60.03
3649.523	-61.58
3660.579	-62.03
3671.602	-63.4
3682.591	-62.22
3693.547	-60.31
3704.47	-59.58
3715.359	-60.76
3726.216	-63.03
3737.039	-64.12
3747.83	-64.03
3758.589	-64.03
3769.315	-64.49
3780.008	-67.12
3790.67	-66.58
3801.299	-62.67
3811.897	-60.49
3822.463	-61.03
3832.998	-63.85
3843.501	-64.76
3853.973	-63.85
3864.414	-53.31
3874.823	-11.31
3885.202	-0.31
3895.55	-14.85
3905.868	-54.22
3916.155	-61.49
3926.411	-64.22
3936.638	-65.22
3946.834	-64.22
3957	-61.58
3967.137	-60.22
3977.244	-60.49
3987.321	-60.31
3997.369	-59.49
4007.388	-60.58
4017.377	-62.67
4027.338	-63.49
4037.269	-63.85
4047.172	-62.58
4057.046	-61.03
4066.891	-60.12
4076.708	-60.85
4086.497	-62.4
4096.257	-42.22
4105.989	-5.03
4115.694	-5.49
4125.37	-36.49
4135.019	-64.79
4142.237	-64.29