Folder: Water/Data/Raman/2017-08-24 - Glass, alluminum 108/Aluminum II [full set] (part 3)

File: Alu-BS-BLANK 30s,I=1, BC=3, 1sta _RamanShift_2.txt
Data from Alu-BS-BLANK 30s,I=1, BC=3, 1sta _RamanShift_2.txt Node

Date: Thu Aug 24 13:40:51 IDT 2017
User: aro
Spectrometer: QEPB0276
Trigger mode: 0
Integration Time (sec): 3.000000E1
Scans to average: 1
Electric dark correction enabled: true
Nonlinearity correction enabled: false
Boxcar width: 5
XAxis mode: Raman Shifts
Number of Pixels in Spectrum: 1044
>>>>>Begin Spectral Data<<<<<
160.701	185.38
184.826	559.38
208.845	969.28
232.758	1305.28
256.565	1415.1
280.267	1518.74
303.865	1618.83
327.359	1705.83
350.751	1821.01
374.04	1953.28
397.228	2299.65
420.315	2367.56
443.302	2295.92
466.189	1900.83
488.978	1659.74
511.668	1320.83
534.261	962.28
556.756	771.47
579.155	715.56
601.459	694.38
623.667	739.83
645.781	732.65
667.8	685.47
689.726	548.01
711.56	514.1
733.301	542.01
754.951	573.19
776.509	617.01
797.977	623.28
819.355	609.83
840.644	546.74
861.844	477.92
882.955	424.28
903.979	399.65
924.916	390.83
945.766	386.28
966.529	377.1
987.208	374.19
1007.801	379.56
1028.309	398.01
1048.734	411.56
1069.075	413.1
1089.333	397.01
1109.509	374.01
1129.602	357.38
1149.614	355.56
1169.545	362.56
1189.395	368.65
1209.165	369.65
1228.856	368.83
1248.467	350.83
1268	326.65
1287.455	314.83
1306.832	319.01
1326.132	323.1
1345.354	317.56
1364.501	306.1
1383.572	295.1
1402.567	281.83
1421.487	274.92
1440.333	279.56
1459.104	286.56
1477.802	287.01
1496.426	288.1
1514.978	289.38
1533.457	288.1
1551.864	288.1
1570.199	278.1
1588.464	258.01
1606.657	248.38
1624.78	246.28
1642.834	247.19
1660.817	248.65
1678.732	250.19
1696.577	244.56
1714.355	234.19
1732.064	218.28
1749.705	203.01
1767.28	196.19
1784.787	192.65
1802.228	186.65
1819.603	172.74
1836.913	161.1
1854.156	157.47
1871.335	157.01
1888.449	160.56
1905.499	163.83
1922.485	168.38
1939.408	165.74
1956.267	154.83
1973.063	139.1
1989.797	127.83
2006.469	122.47
2023.078	118.74
2039.627	114.65
2056.114	115.92
2072.54	119.38
2088.906	121.1
2105.211	116.1
2121.457	108.1
2137.643	101.01
2153.77	92.92
2169.838	84.83
2185.848	80.19
2201.799	78.28
2217.693	78.19
2233.529	76.65
2249.307	72.74
2265.029	67.28
2280.694	64.83
2296.302	60.28
2311.854	73.65
2327.351	89.38
2342.792	86.1
2358.178	57.1
2373.508	46.38
2388.785	45.74
2404.007	41.1
2419.174	37.56
2434.289	32.56
2449.349	32.47
2464.356	32.1
2479.311	32.01
2494.213	30.74
2509.062	29.19
2523.859	26.56
2538.605	24.83
2553.299	22.74
2567.941	21.92
2582.533	19.65
2597.073	19.56
2611.564	16.65
2626.004	14.28
2640.394	8.83
2654.734	5.37
2669.025	1.38
2683.266	-0.72
2697.458	-2.08
2711.602	-1.72
2725.697	0.38
2739.744	1.47
2753.743	0.28
2767.695	-4.62
2781.598	-7.26
2795.455	-7.9
2809.264	-8.17
2823.026	-8.17
2836.742	-9.63
2850.412	-11.44
2864.035	-12.9
2877.613	-14.72
2891.145	-16.9
2904.631	-18.99
2918.073	-21.44
2931.469	-22.53
2944.821	-24.08
2958.128	-24.44
2971.39	-24.17
2984.609	-24.17
2997.784	-25.99
3010.915	-27.99
3024.002	-30.53
3037.046	-32.17
3050.048	-32.72
3063.006	-34.08
3075.922	-34.62
3088.795	-34.72
3101.627	-36.17
3114.416	-36.17
3127.163	-37.9
3139.869	-39.53
3152.533	-40.35
3165.157	-39.08
3177.739	-38.72
3190.28	-39.26
3202.781	-40.17
3215.241	-42.72
3227.661	-44.08
3240.041	-45.44
3252.382	-46.72
3264.682	-47.99
3276.943	-46.9
3289.165	-46.17
3301.348	-47.17
3313.492	-47.08
3325.597	-48.44
3337.663	-49.81
3349.691	-51.99
3361.681	-53.81
3373.633	-53.81
3385.547	-51.53
3397.424	-50.9
3409.263	-51.35
3421.065	-51.81
3432.829	-51.35
3444.557	-52.35
3456.247	-52.08
3467.902	-51.53
3479.519	-51.99
3491.101	-52.08
3502.646	-51.72
3514.155	-51.9
3525.629	-52.44
3537.067	-53.26
3548.469	-53.44
3559.837	-53.9
3571.169	-53.72
3582.466	-54.17
3593.728	-54.53
3604.956	-55.08
3616.149	-53.62
3627.307	-55.44
3638.432	-57.17
3649.523	-57.9
3660.579	-57.99
3671.602	-57.99
3682.591	-56.62
3693.547	-54.72
3704.47	-54.62
3715.359	-55.44
3726.216	-57.9
3737.039	-58.99
3747.83	-57.72
3758.589	-56.72
3769.315	-56.72
3780.008	-59.72
3790.67	-59.62
3801.299	-57.62
3811.897	-55.99
3822.463	-58.17
3832.998	-60.72
3843.501	-60.35
3853.973	-58.81
3864.414	-49.44
3874.823	-9.44
3885.202	0.74
3895.55	-12.26
3905.868	-41.62
3916.155	-48.9
3926.411	-51.72
3936.638	-60.35
3946.834	-59.26
3957	-56.62
3967.137	-54.44
3977.244	-54.62
3987.321	-53.53
3997.369	-53.9
4007.388	-55.44
4017.377	-57.53
4027.338	-57.9
4037.269	-57.9
4047.172	-56.53
4057.046	-56.9
4066.891	-56.53
4076.708	-56.72
4086.497	-57.62
4096.257	-38.81
4105.989	-5.35
4115.694	-4.9
4125.37	-33.17
4135.019	-60.4
4142.237	-60.29

File: Alu-BS-BLANK 30s,I=1, BC=3, 1sta _RamanShift_3.txt
Data from Alu-BS-BLANK 30s,I=1, BC=3, 1sta _RamanShift_3.txt Node

Date: Thu Aug 24 13:41:21 IDT 2017
User: aro
Spectrometer: QEPB0276
Trigger mode: 0
Integration Time (sec): 3.000000E1
Scans to average: 1
Electric dark correction enabled: true
Nonlinearity correction enabled: false
Boxcar width: 5
XAxis mode: Raman Shifts
Number of Pixels in Spectrum: 1044
>>>>>Begin Spectral Data<<<<<
160.701	183.54
184.826	559.77
208.845	969.24
232.758	1306.88
256.565	1410.88
280.267	1517.15
303.865	1617.24
327.359	1705.06
350.751	1815.06
374.04	1948.97
397.228	2294.6
420.315	2363.42
443.302	2292.69
466.189	1904.33
488.978	1664.88
511.668	1324.15
534.261	964.6
556.756	769.78
579.155	712.88
601.459	686.6
623.667	732.42
645.781	728.15
667.8	684.6
689.726	546.51
711.56	512.42
733.301	535.78
754.951	565.51
776.509	606.51
797.977	614.06
819.355	602.88
840.644	547.06
861.844	478.24
882.955	425.42
903.979	397.15
924.916	387.06
945.766	380.06
966.529	372.97
987.208	367.78
1007.801	375.42
1028.309	390.97
1048.734	405.97
1069.075	407.6
1089.333	397.15
1109.509	374.78
1129.602	354.51
1149.614	350.33
1169.545	356.88
1189.395	361.06
1209.165	363.6
1228.856	361.24
1248.467	345.6
1268	323.33
1287.455	312.15
1306.832	316.97
1326.132	317.51
1345.354	308.78
1364.501	297.15
1383.572	284.42
1402.567	275.06
1421.487	272.69
1440.333	280.24
1459.104	284.6
1477.802	287.88
1496.426	286.88
1514.978	286.42
1533.457	284.6
1551.864	284.15
1570.199	275.6
1588.464	252.97
1606.657	243.51
1624.78	238.06
1642.834	240.69
1660.817	245.33
1678.732	249.06
1696.577	243.24
1714.355	230.33
1732.064	211.69
1749.705	198.15
1767.28	191.42
1784.787	188.69
1802.228	183.97
1819.603	170.24
1836.913	160.88
1854.156	155.33
1871.335	155.78
1888.449	157.6
1905.499	160.88
1922.485	162.97
1939.408	160.97
1956.267	149.15
1973.063	135.42
1989.797	125.78
2006.469	121.69
2023.078	117.06
2039.627	111.88
2056.114	113.33
2072.54	116.42
2088.906	117.97
2105.211	109.51
2121.457	100.78
2137.643	94.97
2153.77	90.6
2169.838	83.88
2185.848	78.33
2201.799	74.51
2217.693	72.97
2233.529	71.78
2249.307	67.69
2265.029	63.69
2280.694	62.33
2296.302	61.6
2311.854	74.88
2327.351	91.15
2342.792	86.69
2358.178	55.15
2373.508	42.88
2388.785	40.33
2404.007	36.42
2419.174	33.33
2434.289	30.97
2449.349	32.51
2464.356	30.15
2479.311	28.6
2494.213	25.97
2509.062	25.78
2523.859	23.06
2538.605	20.15
2553.299	19.33
2567.941	19.88
2582.533	18.33
2597.073	16.6
2611.564	14.15
2626.004	10.42
2640.394	4.97
2654.734	1.42
2669.025	-0.94
2683.266	-2.03
2697.458	-3.31
2711.602	-2.4
2725.697	-1.03
2739.744	0.42
2753.743	-1.31
2767.695	-6.67
2781.598	-10.58
2795.455	-12.22
2809.264	-12.12
2823.026	-11.12
2836.742	-9.94
2850.412	-10.4
2864.035	-11.67
2877.613	-13.31
2891.145	-18.94
2904.631	-23.49
2918.073	-26.85
2931.469	-26.49
2944.821	-26.58
2958.128	-24.85
2971.39	-24.67
2984.609	-25.03
2997.784	-28.85
3010.915	-32.22
3024.002	-35.76
3037.046	-37.03
3050.048	-37.12
3063.006	-35.67
3075.922	-34.31
3088.795	-34.03
3101.627	-36.31
3114.416	-37.49
3127.163	-39.22
3139.869	-40.31
3152.533	-41.85
3165.157	-42.58
3177.739	-43.85
3190.28	-43.12
3202.781	-43.58
3215.241	-43.03
3227.661	-44.85
3240.041	-46.76
3252.382	-48.03
3264.682	-48.85
3276.943	-48.67
3289.165	-48.67
3301.348	-49.49
3313.492	-49.76
3325.597	-50.03
3337.663	-50.03
3349.691	-50.58
3361.681	-52.12
3373.633	-54.31
3385.547	-53.76
3397.424	-41.31
3409.263	-41.12
3421.065	-43.22
3432.829	-53.49
3444.557	-52.03
3456.247	-50.76
3467.902	-49.76
3479.519	-51.58
3491.101	-53.12
3502.646	-55.03
3514.155	-55.22
3525.629	-55.58
3537.067	-56.12
3548.469	-56.58
3559.837	-56.49
3571.169	-55.03
3582.466	-54.94
3593.728	-55.4
3604.956	-56.12
3616.149	-57.12
3627.307	-58.22
3638.432	-58.76
3649.523	-60.58
3660.579	-60.49
3671.602	-59.67
3682.591	-57.22
3693.547	-56.31
3704.47	-55.94
3715.359	-57.31
3726.216	-59.4
3737.039	-61.4
3747.83	-60.94
3758.589	-59.49
3769.315	-59.03
3780.008	-61.49
3790.67	-61.03
3801.299	-58.76
3811.897	-56.85
3822.463	-58.76
3832.998	-61.85
3843.501	-62.58
3853.973	-60.94
3864.414	-50.49
3874.823	-11.31
3885.202	-0.58
3895.55	-12.94
3905.868	-51.22
3916.155	-58.49
3926.411	-60.67
3936.638	-61.03
3946.834	-60.31
3957	-56.67
3967.137	-55.58
3977.244	-56.22
3987.321	-55.76
3997.369	-56.31
4007.388	-58.4
4017.377	-60.12
4027.338	-61.67
4037.269	-60.85
4047.172	-58.4
4057.046	-55.94
4066.891	-55.85
4076.708	-57.12
4086.497	-58.67
4096.257	-40.12
4105.989	-6.76
4115.694	-8.4
4125.37	-36.12
4135.019	-62.12
4142.237	-60.62

File: Alu-BS-control 30s,I=1, BC=3, 1sta _RamanShift_1.txt
Data from Alu-BS-control 30s,I=1, BC=3, 1sta _RamanShift_1.txt Node

Date: Thu Aug 24 13:42:51 IDT 2017
User: aro
Spectrometer: QEPB0276
Trigger mode: 0
Integration Time (sec): 3.000000E1
Scans to average: 1
Electric dark correction enabled: true
Nonlinearity correction enabled: false
Boxcar width: 5
XAxis mode: Raman Shifts
Number of Pixels in Spectrum: 1044
>>>>>Begin Spectral Data<<<<<
160.701	181
184.826	526
208.845	900.68
232.758	1216.86
256.565	1314.68
280.267	1411.59
303.865	1501.23
327.359	1578.86
350.751	1673.77
374.04	1786.14
397.228	2087.86
420.315	2145.23
443.302	2077.59
466.189	1731.05
488.978	1522.95
511.668	1230.41
534.261	922.23
556.756	754.59
579.155	705.23
601.459	683.5
623.667	724.86
645.781	720.59
667.8	679.05
689.726	554.23
711.56	524.32
733.301	544.86
754.951	567.23
776.509	600.05
797.977	603.32
819.355	592.41
840.644	541.68
861.844	482.77
882.955	434.23
903.979	407.95
924.916	398.5
945.766	393.05
966.529	384.23
987.208	374.95
1007.801	379.5
1028.309	397.14
1048.734	410.05
1069.075	412.41
1089.333	397.41
1109.509	376.86
1129.602	359.32
1149.614	356.77
1169.545	361.05
1189.395	365.68
1209.165	365.5
1228.856	364.23
1248.467	349.23
1268	330.77
1287.455	320.77
1306.832	322.23
1326.132	321.86
1345.354	313.23
1364.501	304.5
1383.572	295.68
1402.567	285.5
1421.487	278.86
1440.333	282.59
1459.104	287.68
1477.802	286.14
1496.426	285.95
1514.978	287.77
1533.457	288.59
1551.864	289.86
1570.199	278.95
1588.464	256.95
1606.657	244.23
1624.78	239.23
1642.834	238.86
1660.817	241.86
1678.732	240.32
1696.577	232.23
1714.355	219.05
1732.064	203.41
1749.705	188.23
1767.28	178.59
1784.787	174.95
1802.228	168.59
1819.603	158.41
1836.913	150.77
1854.156	147.41
1871.335	144.95
1888.449	145.23
1905.499	145.68
1922.485	147.41
1939.408	142.59
1956.267	131.86
1973.063	118.5
1989.797	111.68
2006.469	108.41
2023.078	103.95
2039.627	99.41
2056.114	96.68
2072.54	97.95
2088.906	95.59
2105.211	91.5
2121.457	86.23
2137.643	81.14
2153.77	74.77
2169.838	68.14
2185.848	64.95
2201.799	61.41
2217.693	58.41
2233.529	55.5
2249.307	53.5
2265.029	48.32
2280.694	47.14
2296.302	45.23
2311.854	59.77
2327.351	75.68
2342.792	71.14
2358.178	40.14
2373.508	28.14
2388.785	26.32
2404.007	23.05
2419.174	20.77
2434.289	17.95
2449.349	15.95
2464.356	14.14
2479.311	12.32
2494.213	12.14
2509.062	11.59
2523.859	10.32
2538.605	6.77
2553.299	5.68
2567.941	4.41
2582.533	0.86
2597.073	-0.68
2611.564	-2.5
2626.004	-3.05
2640.394	-6.14
2654.734	-9.68
2669.025	-12.05
2683.266	-14.05
2697.458	-16.5
2711.602	-19.41
2725.697	-19.14
2739.744	-19.59
2753.743	-19.68
2767.695	-21.77
2781.598	-22.05
2795.455	-22.59
2809.264	-22.59
2823.026	-23.23
2836.742	-23.77
2850.412	-26.77
2864.035	-28.86
2877.613	-31.5
2891.145	-33.32
2904.631	-36.5
2918.073	-37.77
2931.469	-38.68
2944.821	-38.5
2958.128	-39.41
2971.39	-40.86
2984.609	-42.05
2997.784	-44.14
3010.915	-45.77
3024.002	-46.95
3037.046	-49.5
3050.048	-47.86
3063.006	-47.68
3075.922	-47.95
3088.795	-49.59
3101.627	-51.41
3114.416	-52.86
3127.163	-53.86
3139.869	-54.41
3152.533	-55.59
3165.157	-55.23
3177.739	-55.14
3190.28	-47.59
3202.781	-7.23
3215.241	-9.05
3227.661	-54.41
3240.041	-61.14
3252.382	-60.59
3264.682	-61.68
3276.943	-60.59
3289.165	-60.41
3301.348	-60.86
3313.492	-61.86
3325.597	-63.5
3337.663	-62.95
3349.691	-63.68
3361.681	-63.5
3373.633	-64.68
3385.547	-64.32
3397.424	-63.77
3409.263	-65.41
3421.065	-67.14
3432.829	-67.23
3444.557	-67.14
3456.247	-65.59
3467.902	-64.41
3479.519	-64.86
3491.101	-66.23
3502.646	-67.86
3514.155	-68.32
3525.629	-69.59
3537.067	-69.68
3548.469	-69.77
3559.837	-68.86
3571.169	-68.32
3582.466	-67.59
3593.728	-67.86
3604.956	-68.32
3616.149	-69.05
3627.307	-69.05
3638.432	-70.14
3649.523	-71.77
3660.579	-73.05
3671.602	-73.68
3682.591	-73.59
3693.547	-71.05
3704.47	-69.68
3715.359	-69.5
3726.216	-70.32
3737.039	-71.14
3747.83	-70.41
3758.589	-71.23
3769.315	-73.41
3780.008	-76.86
3790.67	-76.59
3801.299	-73.59
3811.897	-71.05
3822.463	-71.86
3832.998	-72.14
3843.501	-71.41
3853.973	-70.32
3864.414	-56.68
3874.823	0.59
3885.202	14.5
3895.55	-7.95
3905.868	-63.05
3916.155	-72.32
3926.411	-72.95
3936.638	-72.23
3946.834	-71.5
3957	-68.68
3967.137	-68.14
3977.244	-70.23
3987.321	-71.59
3997.369	-72.95
4007.388	-74.59
4017.377	-73.32
4027.338	-73.05
4037.269	-72.23
4047.172	-70.95
4057.046	-70.5
4066.891	-71.41
4076.708	-72.95
4086.497	-74.14
4096.257	-47.23
4105.989	-0.41
4115.694	-0.77
4125.37	-39.41
4135.019	-73.83
4142.237	-72.5

File: Alu-BS-control 30s,I=1, BC=3, 1sta _RamanShift_2.txt
Data from Alu-BS-control 30s,I=1, BC=3, 1sta _RamanShift_2.txt Node

Date: Thu Aug 24 13:43:21 IDT 2017
User: aro
Spectrometer: QEPB0276
Trigger mode: 0
Integration Time (sec): 3.000000E1
Scans to average: 1
Electric dark correction enabled: true
Nonlinearity correction enabled: false
Boxcar width: 5
XAxis mode: Raman Shifts
Number of Pixels in Spectrum: 1044
>>>>>Begin Spectral Data<<<<<
160.701	180.96
184.826	522.52
208.845	898.17
232.758	1215.72
256.565	1314.81
280.267	1411.17
303.865	1498.72
327.359	1574.35
350.751	1670.81
374.04	1782.26
397.228	2083.72
420.315	2141.26
443.302	2074.44
466.189	1726.53
488.978	1521.9
511.668	1233.26
534.261	924.53
556.756	756.81
579.155	705.9
601.459	681.9
623.667	725.44
645.781	722.72
667.8	679.53
689.726	555.81
711.56	525.62
733.301	547.44
754.951	567.53
776.509	599.35
797.977	600.26
819.355	588.62
840.644	535.81
861.844	478.62
882.955	433.17
903.979	410.44
924.916	400.72
945.766	393.9
966.529	384.35
987.208	377.17
1007.801	382.9
1028.309	395.72
1048.734	405.44
1069.075	403.53
1089.333	393.81
1109.509	375.53
1129.602	360.44
1149.614	355.08
1169.545	360.08
1189.395	362.35
1209.165	363.08
1228.856	362.35
1248.467	349.35
1268	329.17
1287.455	318.17
1306.832	321.9
1326.132	322.08
1345.354	313.35
1364.501	301.53
1383.572	290.44
1402.567	278.72
1421.487	274.62
1440.333	278.9
1459.104	285.08
1477.802	283.99
1496.426	287.17
1514.978	284.17
1533.457	284.9
1551.864	283.53
1570.199	272.62
1588.464	252.72
1606.657	243.44
1624.78	238.53
1642.834	237.63
1660.817	240.26
1678.732	237.99
1696.577	230.35
1714.355	216.81
1732.064	202.44
1749.705	188.44
1767.28	178.53
1784.787	174.81
1802.228	170.81
1819.603	159.62
1836.913	149.35
1854.156	143.72
1871.335	141.9
1888.449	142.62
1905.499	143.26
1922.485	144.72
1939.408	141.17
1956.267	130.62
1973.063	118.9
1989.797	109.35
2006.469	106.17
2023.078	99.44
2039.627	95.44
2056.114	95.72
2072.54	99.9
2088.906	100.26
2105.211	93.62
2121.457	87.08
2137.643	81.53
2153.77	76.81
2169.838	70.26
2185.848	63.35
2201.799	58.44
2217.693	56.35
2233.529	55.72
2249.307	54.53
2265.029	50.9
2280.694	47.81
2296.302	45.35
2311.854	57.08
2327.351	74.35
2342.792	69.35
2358.178	38.81
2373.508	26.81
2388.785	27.26
2404.007	25.53
2419.174	24.62
2434.289	21.17
2449.349	18.62
2464.356	16.08
2479.311	14.08
2494.213	10.99
2509.062	9.81
2523.859	8.99
2538.605	7.26
2553.299	7.44
2567.941	7.08
2582.533	5.17
2597.073	2.63
2611.564	-0.28
2626.004	-3.56
2640.394	-7.38
2654.734	-10.19
2669.025	-13.01
2683.266	-14.1
2697.458	-15.28
2711.602	-14.92
2725.697	-14.47
2739.744	-13.19
2753.743	-15.83
2767.695	-20.92
2781.598	-23.47
2795.455	-25.28
2809.264	-25.01
2823.026	-23.1
2836.742	-22.38
2850.412	-22.56
2864.035	-23.38
2877.613	-27.1
2891.145	-32.19
2904.631	-36.83
2918.073	-38.01
2931.469	-38.47
2944.821	-39.83
2958.128	-38.56
2971.39	-39.28
2984.609	-39.65
2997.784	-42.19
3010.915	-44.74
3024.002	-46.92
3037.046	-48.56
3050.048	-48.01
3063.006	-47.47
3075.922	-46.65
3088.795	-47.38
3101.627	-50.56
3114.416	-52.47
3127.163	-53.56
3139.869	-53.1
3152.533	-52.56
3165.157	-53.1
3177.739	-53.83
3190.28	-55.28
3202.781	-55.28
3215.241	-56.56
3227.661	-57.65
3240.041	-59.38
3252.382	-59.19
3264.682	-60.83
3276.943	-60.47
3289.165	-59.83
3301.348	-60.74
3313.492	-61.19
3325.597	-62.19
3337.663	-61.83
3349.691	-62.83
3361.681	-63.47
3373.633	-63.01
3385.547	-63.19
3397.424	-63.92
3409.263	-65.1
3421.065	-65.65
3432.829	-64.92
3444.557	-63.74
3456.247	-63.19
3467.902	-62.1
3479.519	-63.38
3491.101	-63.74
3502.646	-64.83
3514.155	-66.74
3525.629	-66.83
3537.067	-67.56
3548.469	-68.47
3559.837	-68.74
3571.169	-69.1
3582.466	-67.38
3593.728	-68.56
3604.956	-68.38
3616.149	-68.01
3627.307	-69.38
3638.432	-68.92
3649.523	-70.28
3660.579	-71.1
3671.602	-71.47
3682.591	-70.47
3693.547	-67.92
3704.47	-67.28
3715.359	-68.92
3726.216	-70.83
3737.039	-71.47
3747.83	-71.19
3758.589	-71.01
3769.315	-72.38
3780.008	-76.28
3790.67	-76.1
3801.299	-72.56
3811.897	-68.38
3822.463	-68.83
3832.998	-70.65
3843.501	-70.74
3853.973	-70.38
3864.414	-57.83
3874.823	-1.01
3885.202	12.08
3895.55	-8.19
3905.868	-61.38
3916.155	-68.38
3926.411	-69.83
3936.638	-70.19
3946.834	-70.1
3957	-69.28
3967.137	-69.56
3977.244	-69.92
3987.321	-69.65
3997.369	-68.19
4007.388	-69.74
4017.377	-70.19
4027.338	-71.83
4037.269	-71.19
4047.172	-70.38
4057.046	-69.74
4066.891	-70.38
4076.708	-71.19
4086.497	-71.1
4096.257	-43.19
4105.989	2.81
4115.694	1.99
4125.37	-37.74
4135.019	-72.04
4142.237	-71.71

File: Alu-BS-control 30s,I=1, BC=3, 1sta _RamanShift_3.txt
Data from Alu-BS-control 30s,I=1, BC=3, 1sta _RamanShift_3.txt Node

Date: Thu Aug 24 13:44:21 IDT 2017
User: aro
Spectrometer: QEPB0276
Trigger mode: 0
Integration Time (sec): 3.000000E1
Scans to average: 1
Electric dark correction enabled: true
Nonlinearity correction enabled: false
Boxcar width: 5
XAxis mode: Raman Shifts
Number of Pixels in Spectrum: 1044
>>>>>Begin Spectral Data<<<<<
160.701	178.96
184.826	526.52
208.845	903.67
232.758	1222.31
256.565	1319.31
280.267	1414.58
303.865	1500.67
327.359	1573.12
350.751	1670.76
374.04	1785.49
397.228	2097.12
420.315	2156.94
443.302	2091.94
466.189	1739.12
488.978	1526.76
511.668	1230.4
534.261	918.49
556.756	751.12
579.155	703.76
601.459	680.67
623.667	725.03
645.781	719.22
667.8	678.22
689.726	549.49
711.56	519.85
733.301	541.49
754.951	568.76
776.509	600.94
797.977	603.76
819.355	591.03
840.644	536.94
861.844	476.76
882.955	428.94
903.979	405.94
924.916	395.31
945.766	389.22
966.529	379.94
987.208	372.31
1007.801	378.22
1028.309	393.85
1048.734	401.31
1069.075	402.03
1089.333	390.58
1109.509	374.22
1129.602	358.31
1149.614	354.67
1169.545	357.03
1189.395	358.12
1209.165	358.4
1228.856	356.76
1248.467	342.67
1268	322.4
1287.455	312.22
1306.832	315.85
1326.132	314.49
1345.354	305.67
1364.501	293.12
1383.572	282.22
1402.567	270.67
1421.487	267.12
1440.333	273.94
1459.104	279.12
1477.802	280.4
1496.426	280.94
1514.978	279.49
1533.457	279.85
1551.864	277.85
1570.199	270.12
1588.464	248.31
1606.657	235.31
1624.78	228.58
1642.834	229.85
1660.817	233.85
1678.732	234.03
1696.577	224.67
1714.355	212.49
1732.064	196.22
1749.705	184.58
1767.28	174.22
1784.787	170.67
1802.228	163.58
1819.603	151.76
1836.913	143.4
1854.156	140.58
1871.335	140.85
1888.449	141.58
1905.499	141.67
1922.485	141.4
1939.408	136.49
1956.267	126.94
1973.063	114.49
1989.797	105.58
2006.469	103.03
2023.078	100.58
2039.627	96.22
2056.114	94.85
2072.54	96.67
2088.906	95.58
2105.211	89.22
2121.457	82.76
2137.643	76.67
2153.77	71.12
2169.838	64.31
2185.848	60.13
2201.799	56.76
2217.693	55.67
2233.529	53.58
2249.307	52.31
2265.029	46.67
2280.694	44.31
2296.302	42.4
2311.854	56.85
2327.351	72.67
2342.792	68.76
2358.178	37.76
2373.508	27.67
2388.785	26.13
2404.007	22.13
2419.174	18.94
2434.289	16.76
2449.349	16.49
2464.356	14.76
2479.311	12.12
2494.213	10.49
2509.062	9.76
2523.859	7.94
2538.605	5.76
2553.299	3.58
2567.941	2.22
2582.533	-0.06
2597.073	-0.24
2611.564	-1.6
2626.004	-4.69
2640.394	-9.33
2654.734	-13.97
2669.025	-16.15
2683.266	-17.15
2697.458	-15.69
2711.602	-15.87
2725.697	-14.15
2739.744	-14.15
2753.743	-16.51
2767.695	-21.06
2781.598	-25.51
2795.455	-26.6
2809.264	-26.88
2823.026	-26.51
2836.742	-25.42
2850.412	-24.69
2864.035	-23.97
2877.613	-27.6
2891.145	-34.15
2904.631	-38.78
2918.073	-40.51
2931.469	-38.97
2944.821	-40.33
2958.128	-39.42
2971.39	-39.24
2984.609	-38.88
2997.784	-40.6
3010.915	-44.24
3024.002	-48.42
3037.046	-50.78
3050.048	-49.88
3063.006	-47.97
3075.922	-48.69
3088.795	-48.97
3101.627	-50.6
3114.416	-51.97
3127.163	-53.24
3139.869	-54.33
3152.533	-55.06
3165.157	-55.78
3177.739	-57.06
3190.28	-57.24
3202.781	-55.78
3215.241	-55.6
3227.661	-56.88
3240.041	-59.78
3252.382	-60.78
3264.682	-63.33
3276.943	-63.51
3289.165	-63.06
3301.348	-63.15
3313.492	-61.88
3325.597	-61.06
3337.663	-61.78
3349.691	-63.06
3361.681	-64.88
3373.633	-66.42
3385.547	-66.15
3397.424	-65.69
3409.263	-66.69
3421.065	-66.88
3432.829	-64.88
3444.557	-63.6
3456.247	-62.15
3467.902	-62.51
3479.519	-64.78
3491.101	-66.69
3502.646	-68.15
3514.155	-68.97
3525.629	-69.88
3537.067	-69.06
3548.469	-68.88
3559.837	-67.97
3571.169	-67.51
3582.466	-67.15
3593.728	-69.33
3604.956	-69.88
3616.149	-70.78
3627.307	-71.06
3638.432	-71.06
3649.523	-71.15
3660.579	-70.6
3671.602	-70.78
3682.591	-70.42
3693.547	-69.78
3704.47	-70.6
3715.359	-71.69
3726.216	-74.24
3737.039	-74.42
3747.83	-74.51
3758.589	-72.88
3769.315	-72.78
3780.008	-75.06
3790.67	-74.88
3801.299	-73.6
3811.897	-72.06
3822.463	-73.78
3832.998	-73.42
3843.501	-72.24
3853.973	-69.88
3864.414	-57.51
3874.823	-0.42
3885.202	12.22
3895.55	-8.51
3905.868	-63.69
3916.155	-71.42
3926.411	-71.97
3936.638	-72.42
3946.834	-71.33
3957	-69.69
3967.137	-69.15
3977.244	-71.15
3987.321	-71.88
3997.369	-72.06
4007.388	-72.33
4017.377	-72.51
4027.338	-73.51
4037.269	-72.88
4047.172	-71.15
4057.046	-69.78
4066.891	-71.06
4076.708	-72.24
4086.497	-73.42
4096.257	-46.06
4105.989	0.94
4115.694	0.67
4125.37	-37.69
4135.019	-72.76
4142.237	-71.88