Folder: Water/Data/Raman/2017-08-24 - Glass, alluminum 108/Aluminum II [full set] (part 6)

File: Alu-EC-Blank 30s,I=1, BC=3, 1sta _RamanShift_2.txt
Data from Alu-Blank 30s,I=1, BC=3, 1sta _RamanShift_2.txt Node

Date: Thu Aug 24 13:28:51 IDT 2017
User: aro
Spectrometer: QEPB0276
Trigger mode: 0
Integration Time (sec): 3.000000E1
Scans to average: 1
Electric dark correction enabled: true
Nonlinearity correction enabled: false
Boxcar width: 5
XAxis mode: Raman Shifts
Number of Pixels in Spectrum: 1044
>>>>>Begin Spectral Data<<<<<
160.701	174.42
184.826	525.65
208.845	918.93
232.758	1242.75
256.565	1345.84
280.267	1438.93
303.865	1518.66
327.359	1586.11
350.751	1671.57
374.04	1780.75
397.228	2059.02
420.315	2112.11
443.302	2050.75
466.189	1726.48
488.978	1539.3
511.668	1275.66
534.261	995.84
556.756	843.11
579.155	797.75
601.459	777.84
623.667	815.84
645.781	811.3
667.8	769.75
689.726	653.75
711.56	625.84
733.301	644.66
754.951	665.39
776.509	690.2
797.977	689.57
819.355	674.39
840.644	627.3
861.844	574.75
882.955	531.02
903.979	506.02
924.916	494.39
945.766	489.02
966.529	475.75
987.208	463.48
1007.801	466.39
1028.309	480.66
1048.734	489.3
1069.075	488.84
1089.333	477.75
1109.509	459.2
1129.602	442.11
1149.614	435.2
1169.545	437.93
1189.395	437.75
1209.165	439.3
1228.856	438.11
1248.467	423.39
1268	403.66
1287.455	393.66
1306.832	396.48
1326.132	390.93
1345.354	377.3
1364.501	364.57
1383.572	353.66
1402.567	340.57
1421.487	334.39
1440.333	340.75
1459.104	344.48
1477.802	337.57
1496.426	335.48
1514.978	334.93
1533.457	335.93
1551.864	334.48
1570.199	326.11
1588.464	305.48
1606.657	294.57
1624.78	290.11
1642.834	288.84
1660.817	289.39
1678.732	283.3
1696.577	270.66
1714.355	255.3
1732.064	241.48
1749.705	227.2
1767.28	217.93
1784.787	211.48
1802.228	206.57
1819.603	196.02
1836.913	188.39
1854.156	182.48
1871.335	181.11
1888.449	182.11
1905.499	180.2
1922.485	179.2
1939.408	175.2
1956.267	164.39
1973.063	153.2
1989.797	143.02
2006.469	138.02
2023.078	130.93
2039.627	125.84
2056.114	125.3
2072.54	127.57
2088.906	127.84
2105.211	122.84
2121.457	116.39
2137.643	110.39
2153.77	103.3
2169.838	96.3
2185.848	89.11
2201.799	83.57
2217.693	82.3
2233.529	82.75
2249.307	81.75
2265.029	77.3
2280.694	73.02
2296.302	70.11
2311.854	80.2
2327.351	94.93
2342.792	89.57
2358.178	62.02
2373.508	51.48
2388.785	51.66
2404.007	47.66
2419.174	45.84
2434.289	42.3
2449.349	41.57
2464.356	38.02
2479.311	34.11
2494.213	31.48
2509.062	31.93
2523.859	32.93
2538.605	31.93
2553.299	26.57
2567.941	25.39
2582.533	23.02
2597.073	21.02
2611.564	18.66
2626.004	15.48
2640.394	11.84
2654.734	7.02
2669.025	4.48
2683.266	2.84
2697.458	1.48
2711.602	0.48
2725.697	0.48
2739.744	-0.07
2753.743	-2.61
2767.695	-7.61
2781.598	-10.8
2795.455	-12.98
2809.264	-12.98
2823.026	-11.98
2836.742	-11.8
2850.412	-12.52
2864.035	-13.43
2877.613	-15.34
2891.145	-19.98
2904.631	-24.25
2918.073	-27.25
2931.469	-27.98
2944.821	-29.34
2958.128	-28.7
2971.39	-28.61
2984.609	-28.52
2997.784	-30.25
3010.915	-33.52
3024.002	-35.52
3037.046	-38.52
3050.048	-39.07
3063.006	-38.7
3075.922	-39.07
3088.795	-38.98
3101.627	-41.61
3114.416	-41.89
3127.163	-43.34
3139.869	-43.98
3152.533	-45.52
3165.157	-46.98
3177.739	-47.8
3190.28	-47.7
3202.781	-46.89
3215.241	-47.07
3227.661	-48.89
3240.041	-49.98
3252.382	-49.98
3264.682	-51.25
3276.943	-51.61
3289.165	-52.16
3301.348	-52.89
3313.492	-53.61
3325.597	-53.7
3337.663	-52.61
3349.691	-52.7
3361.681	-53.89
3373.633	-55.43
3385.547	-56.61
3397.424	-56.34
3409.263	-57.16
3421.065	-56.61
3432.829	-54.61
3444.557	-53.8
3456.247	-53.07
3467.902	-53.98
3479.519	-56.8
3491.101	-58.89
3502.646	-59.52
3514.155	-58.8
3525.629	-58.43
3537.067	-56.7
3548.469	-56.89
3559.837	-56.52
3571.169	-57.98
3582.466	-58.98
3593.728	-60.8
3604.956	-62.16
3616.149	-61.7
3627.307	-60.7
3638.432	-58.43
3649.523	-59.07
3660.579	-60.25
3671.602	-61.43
3682.591	-61.52
3693.547	-61.43
3704.47	-61.61
3715.359	-62.07
3726.216	-62.61
3737.039	-62.8
3747.83	-62.8
3758.589	-61.25
3769.315	-62.61
3780.008	-65.43
3790.67	-66.34
3801.299	-63.89
3811.897	-62.89
3822.463	-63.89
3832.998	-64.98
3843.501	-63.52
3853.973	-61.7
3864.414	-50.43
3874.823	-8.8
3885.202	1.48
3895.55	-14.25
3905.868	-53.8
3916.155	-60.98
3926.411	-63.07
3936.638	-64.25
3946.834	-63.89
3957	-60.8
3967.137	-58.43
3977.244	-57.43
3987.321	-56.98
3997.369	-58.7
4007.388	-62.52
4017.377	-63.98
4027.338	-64.98
4037.269	-63.89
4047.172	-62.43
4057.046	-60.89
4066.891	-59.89
4076.708	-61.16
4086.497	-61.8
4096.257	-41.34
4105.989	-3.52
4115.694	-4.98
4125.37	-35.07
4135.019	-63.81
4142.237	-62.08

File: Alu-EC-Blank 30s,I=1, BC=3, 1sta _RamanShift_3.txt
Data from Alu-Blank 30s,I=1, BC=3, 1sta _RamanShift_3.txt Node

Date: Thu Aug 24 13:29:21 IDT 2017
User: aro
Spectrometer: QEPB0276
Trigger mode: 0
Integration Time (sec): 3.000000E1
Scans to average: 1
Electric dark correction enabled: true
Nonlinearity correction enabled: false
Boxcar width: 5
XAxis mode: Raman Shifts
Number of Pixels in Spectrum: 1044
>>>>>Begin Spectral Data<<<<<
160.701	175.88
184.826	529.77
208.845	920.06
232.758	1246.78
256.565	1349.69
280.267	1444.51
303.865	1525.33
327.359	1593.88
350.751	1678.33
374.04	1785.69
397.228	2065.78
420.315	2122.88
443.302	2060.06
466.189	1736.24
488.978	1545.24
511.668	1288.51
534.261	1007.78
556.756	853.88
579.155	801.6
601.459	779.42
623.667	814.15
645.781	810.33
667.8	771.06
689.726	658.33
711.56	631.24
733.301	651.06
754.951	669.97
776.509	696.15
797.977	693.42
819.355	675.06
840.644	626.15
861.844	573.6
882.955	531.6
903.979	507.33
924.916	497.42
945.766	489.78
966.529	477.24
987.208	465.88
1007.801	471.6
1028.309	483.6
1048.734	492.24
1069.075	489.88
1089.333	479.51
1109.509	460.33
1129.602	442.88
1149.614	437.24
1169.545	440.97
1189.395	442.15
1209.165	442.78
1228.856	438.42
1248.467	422.88
1268	405.15
1287.455	397.06
1306.832	397.42
1326.132	394.24
1345.354	380.33
1364.501	366.6
1383.572	352.51
1402.567	340.33
1421.487	334.33
1440.333	341.6
1459.104	346.78
1477.802	343.33
1496.426	338.51
1514.978	334.97
1533.457	334.51
1551.864	334.51
1570.199	328.51
1588.464	311.51
1606.657	299.78
1624.78	292.06
1642.834	289.51
1660.817	289.06
1678.732	283.88
1696.577	271.51
1714.355	256.78
1732.064	241.06
1749.705	228.06
1767.28	219.97
1784.787	214.15
1802.228	208.51
1819.603	197.88
1836.913	188.69
1854.156	185.6
1871.335	183.78
1888.449	183.33
1905.499	181.42
1922.485	181.06
1939.408	177.06
1956.267	168.6
1973.063	155.69
1989.797	145.78
2006.469	139.42
2023.078	133.6
2039.627	126.88
2056.114	125.24
2072.54	125.51
2088.906	125.24
2105.211	120.24
2121.457	115.24
2137.643	110.15
2153.77	103.6
2169.838	96.6
2185.848	91.15
2201.799	87.97
2217.693	85.42
2233.529	82.97
2249.307	79.06
2265.029	74.42
2280.694	72.88
2296.302	69.88
2311.854	81.51
2327.351	97.33
2342.792	93.51
2358.178	63.97
2373.508	53.24
2388.785	51.78
2404.007	48.78
2419.174	45.69
2434.289	41.51
2449.349	39.24
2464.356	36.15
2479.311	35.42
2494.213	33.33
2509.062	33.24
2523.859	30.97
2538.605	27.51
2553.299	27.06
2567.941	25.78
2582.533	23.06
2597.073	20.15
2611.564	18.24
2626.004	16.24
2640.394	11.69
2654.734	7.87
2669.025	5.69
2683.266	3.33
2697.458	-0.12
2711.602	-2.22
2725.697	-2.22
2739.744	-2.31
2753.743	-4.22
2767.695	-8.31
2781.598	-8.49
2795.455	-9.03
2809.264	-8.85
2823.026	-9.85
2836.742	-11.31
2850.412	-14.22
2864.035	-15.85
2877.613	-17.12
2891.145	-20.4
2904.631	-23.22
2918.073	-25.85
2931.469	-26.31
2944.821	-27.67
2958.128	-27.76
2971.39	-28.4
2984.609	-28.94
2997.784	-31.4
3010.915	-32.12
3024.002	-32.85
3037.046	-35.94
3050.048	-36.85
3063.006	-37.85
3075.922	-38.12
3088.795	-39.31
3101.627	-41.94
3114.416	-41.76
3127.163	-43.03
3139.869	-42.94
3152.533	-43.49
3165.157	-44.4
3177.739	-45.03
3190.28	-46.22
3202.781	-46.94
3215.241	-48.76
3227.661	-49.22
3240.041	-50.31
3252.382	-49.76
3264.682	-50.67
3276.943	-48.94
3289.165	-48.94
3301.348	-49.85
3313.492	-51.49
3325.597	-53.31
3337.663	-54.12
3349.691	-54.67
3361.681	-54.94
3373.633	-55.22
3385.547	-55.12
3397.424	-54.94
3409.263	-55.22
3421.065	-55.4
3432.829	-55.4
3444.557	-57.12
3456.247	-57.58
3467.902	-57.76
3479.519	-57.31
3491.101	-57.76
3502.646	-57.22
3514.155	-56.4
3525.629	-56.4
3537.067	-55.67
3548.469	-55.94
3559.837	-56.31
3571.169	-57.85
3582.466	-59.12
3593.728	-60.31
3604.956	-60.76
3616.149	-59.58
3627.307	-57.94
3638.432	-57.49
3649.523	-58.58
3660.579	-59.94
3671.602	-61.12
3682.591	-61.85
3693.547	-60.67
3704.47	-60.85
3715.359	-62.58
3726.216	-63.76
3737.039	-63.4
3747.83	-61.4
3758.589	-59.85
3769.315	-59.94
3780.008	-63.58
3790.67	-64.49
3801.299	-63.31
3811.897	-61.12
3822.463	-62.31
3832.998	-64.03
3843.501	-63.22
3853.973	-59.85
3864.414	-47.49
3874.823	-3.76
3885.202	5.42
3895.55	-12.31
3905.868	-54.94
3916.155	-62.03
3926.411	-63.94
3936.638	-64.49
3946.834	-63.85
3957	-60.12
3967.137	-58.03
3977.244	-58.22
3987.321	-58.4
3997.369	-59.58
4007.388	-61.4
4017.377	-63.22
4027.338	-63.85
4037.269	-62.94
4047.172	-59.76
4057.046	-59.12
4066.891	-58.76
4076.708	-59.31
4086.497	-60.76
4096.257	-40.85
4105.989	-3.85
4115.694	-5.76
4125.37	-37.22
4135.019	-65.35
4142.237	-63.79

File: Alu-EC-control 30s,I=1, BC=3, 1sta _RamanShift_1.txt
Data from Alu-control 30s,I=1, BC=3, 1sta _RamanShift_1.txt Node

Date: Thu Aug 24 13:30:21 IDT 2017
User: aro
Spectrometer: QEPB0276
Trigger mode: 0
Integration Time (sec): 3.000000E1
Scans to average: 1
Electric dark correction enabled: true
Nonlinearity correction enabled: false
Boxcar width: 5
XAxis mode: Raman Shifts
Number of Pixels in Spectrum: 1044
>>>>>Begin Spectral Data<<<<<
160.701	169.46
184.826	505.12
208.845	866.4
232.758	1168.31
256.565	1256.85
280.267	1352.31
303.865	1433.67
327.359	1512.22
350.751	1608.85
374.04	1722.58
397.228	2037.22
420.315	2104.94
443.302	2039.58
466.189	1678.12
488.978	1463.4
511.668	1167.31
534.261	850.58
556.756	683.94
579.155	629.94
601.459	612.22
623.667	655.94
645.781	652.85
667.8	611.85
689.726	487.49
711.56	457.12
733.301	477.22
754.951	502.22
776.509	539.58
797.977	540.67
819.355	525.85
840.644	474.49
861.844	417.49
882.955	372.67
903.979	348.85
924.916	339.49
945.766	332.12
966.529	324.67
987.208	317.67
1007.801	322.4
1028.309	335.94
1048.734	347.22
1069.075	349.94
1089.333	338.12
1109.509	319.12
1129.602	303.85
1149.614	301.94
1169.545	306.4
1189.395	308.22
1209.165	307.94
1228.856	305.67
1248.467	289.4
1268	270.03
1287.455	262.4
1306.832	265.49
1326.132	266.76
1345.354	260.67
1364.501	251.76
1383.572	239.49
1402.567	228.94
1421.487	224.49
1440.333	230.12
1459.104	237.4
1477.802	240.4
1496.426	243.76
1514.978	244.67
1533.457	245.22
1551.864	246.03
1570.199	236.76
1588.464	214.31
1606.657	203.58
1624.78	199.67
1642.834	201.58
1660.817	206.22
1678.732	209.03
1696.577	205.31
1714.355	193.49
1732.064	176.22
1749.705	163.67
1767.28	159.49
1784.787	159.58
1802.228	155.94
1819.603	143.58
1836.913	133.22
1854.156	127.94
1871.335	127.67
1888.449	129.03
1905.499	129.76
1922.485	134.67
1939.408	133.4
1956.267	127.4
1973.063	114.76
1989.797	105.4
2006.469	100.31
2023.078	97.31
2039.627	90.85
2056.114	90.03
2072.54	93.12
2088.906	93.67
2105.211	89.76
2121.457	84.76
2137.643	79.49
2153.77	74.22
2169.838	68.22
2185.848	62.22
2201.799	58.49
2217.693	55.94
2233.529	55.12
2249.307	52.22
2265.029	49.03
2280.694	45.85
2296.302	44.4
2311.854	57.85
2327.351	75.4
2342.792	71.4
2358.178	40.49
2373.508	30.4
2388.785	28.31
2404.007	24.4
2419.174	20.31
2434.289	18.58
2449.349	18.12
2464.356	16.58
2479.311	14.31
2494.213	13.03
2509.062	13.31
2523.859	12.58
2538.605	9.67
2553.299	8.85
2567.941	8.13
2582.533	6.03
2597.073	4.67
2611.564	1.85
2626.004	-0.33
2640.394	-4.42
2654.734	-6.6
2669.025	-7.42
2683.266	-8.33
2697.458	-10.15
2711.602	-10.24
2725.697	-9.24
2739.744	-7.51
2753.743	-8.06
2767.695	-11.42
2781.598	-13.15
2795.455	-14.97
2809.264	-15.78
2823.026	-15.15
2836.742	-15.6
2850.412	-16.6
2864.035	-18.51
2877.613	-19.78
2891.145	-23.78
2904.631	-26.97
2918.073	-27.87
2931.469	-26.69
2944.821	-27.33
2958.128	-26.69
2971.39	-27.78
2984.609	-28.6
2997.784	-31.6
3010.915	-34.06
3024.002	-36.42
3037.046	-37.97
3050.048	-36.33
3063.006	-35.42
3075.922	-36.6
3088.795	-37.97
3101.627	-40.24
3114.416	-41.88
3127.163	-43.88
3139.869	-44.33
3152.533	-44.6
3165.157	-42.88
3177.739	-42.97
3190.28	-43.42
3202.781	-44.33
3215.241	-45.51
3227.661	-45.51
3240.041	-47.78
3252.382	-47.15
3264.682	-47.6
3276.943	-47.15
3289.165	-47.42
3301.348	-47.51
3313.492	-47.78
3325.597	-50.06
3337.663	-51.06
3349.691	-52.42
3361.681	-53.6
3373.633	-53.51
3385.547	-52.69
3397.424	-51.15
3409.263	-51.78
3421.065	-52.78
3432.829	-52.33
3444.557	-52.78
3456.247	-51.6
3467.902	-51.6
3479.519	-52.51
3491.101	-52.69
3502.646	-52.51
3514.155	-52.24
3525.629	-51.97
3537.067	-51.78
3548.469	-51.97
3559.837	-53.51
3571.169	-53.51
3582.466	-53.97
3593.728	-54.6
3604.956	-55.69
3616.149	-55.42
3627.307	-55.78
3638.432	-55.42
3649.523	-55.88
3660.579	-57.33
3671.602	-57.06
3682.591	-57.06
3693.547	-57.33
3704.47	-58.06
3715.359	-58.88
3726.216	-59.33
3737.039	-59.33
3747.83	-58.33
3758.589	-56.06
3769.315	-55.97
3780.008	-58.51
3790.67	-59.88
3801.299	-58.51
3811.897	-56.88
3822.463	-58.42
3832.998	-60.42
3843.501	-60.42
3853.973	-57.97
3864.414	-45.97
3874.823	-1.88
3885.202	9.22
3895.55	-8.24
3905.868	-49.51
3916.155	-57.24
3926.411	-58.51
3936.638	-59.15
3946.834	-59.24
3957	-56.24
3967.137	-53.6
3977.244	-53.88
3987.321	-54.78
3997.369	-55.6
4007.388	-57.42
4017.377	-58.33
4027.338	-59.88
4037.269	-59.15
4047.172	-57.24
4057.046	-55.69
4066.891	-55.24
4076.708	-55.24
4086.497	-57.15
4096.257	-38.78
4105.989	-3.42
4115.694	-4.06
4125.37	-33.69
4135.019	-61.76
4142.237	-60.21

File: Alu-EC-control 30s,I=1, BC=3, 1sta _RamanShift_2.txt
Data from Alu-control 30s,I=1, BC=3, 1sta _RamanShift_2.txt Node

Date: Thu Aug 24 13:30:51 IDT 2017
User: aro
Spectrometer: QEPB0276
Trigger mode: 0
Integration Time (sec): 3.000000E1
Scans to average: 1
Electric dark correction enabled: true
Nonlinearity correction enabled: false
Boxcar width: 5
XAxis mode: Raman Shifts
Number of Pixels in Spectrum: 1044
>>>>>Begin Spectral Data<<<<<
160.701	169.58
184.826	502.95
208.845	863.93
232.758	1162.57
256.565	1253.75
280.267	1351.3
303.865	1437.39
327.359	1513.02
350.751	1607.84
374.04	1723.84
397.228	2038.39
420.315	2103.66
443.302	2038.66
466.189	1679.57
488.978	1468.57
511.668	1169.2
534.261	852.84
556.756	683.75
579.155	633.66
601.459	611.66
623.667	655.48
645.781	652.93
667.8	613.3
689.726	487.02
711.56	455.75
733.301	476.75
754.951	500.2
776.509	537.57
797.977	543.2
819.355	531.93
840.644	478.02
861.844	417.57
882.955	369.48
903.979	344.3
924.916	334.93
945.766	333.84
966.529	327.2
987.208	320.93
1007.801	326.75
1028.309	341.02
1048.734	351.57
1069.075	352.02
1089.333	339.48
1109.509	319.2
1129.602	302.39
1149.614	303.02
1169.545	308.75
1189.395	311.48
1209.165	309.2
1228.856	306.3
1248.467	291.3
1268	272.84
1287.455	265.57
1306.832	269.48
1326.132	271.93
1345.354	266.48
1364.501	257.84
1383.572	246.93
1402.567	236.3
1421.487	230.3
1440.333	234.11
1459.104	239.48
1477.802	242.66
1496.426	248.02
1514.978	248.93
1533.457	249.84
1551.864	250.2
1570.199	239.66
1588.464	218.66
1606.657	208.02
1624.78	204.39
1642.834	205.84
1660.817	211.48
1678.732	215.93
1696.577	212.2
1714.355	199.2
1732.064	182.75
1749.705	168.3
1767.28	160.66
1784.787	157.3
1802.228	154.75
1819.603	144.39
1836.913	135.48
1854.156	131.75
1871.335	131.75
1888.449	134.66
1905.499	136.2
1922.485	140.66
1939.408	138.2
1956.267	130.39
1973.063	115.93
1989.797	105.93
2006.469	100.75
2023.078	95.66
2039.627	92.57
2056.114	93.48
2072.54	97.39
2088.906	97.93
2105.211	90.93
2121.457	84.66
2137.643	78.66
2153.77	71.57
2169.838	65.39
2185.848	59.48
2201.799	57.3
2217.693	57.3
2233.529	56.48
2249.307	53.75
2265.029	49.84
2280.694	49.11
2296.302	46.75
2311.854	58.66
2327.351	74.3
2342.792	68.75
2358.178	37.93
2373.508	28.93
2388.785	27.48
2404.007	24.93
2419.174	22.2
2434.289	20.84
2449.349	20.11
2464.356	17.02
2479.311	13.66
2494.213	10.66
2509.062	11.93
2523.859	11.2
2538.605	10.66
2553.299	10.2
2567.941	10.02
2582.533	7.48
2597.073	4.2
2611.564	1.11
2626.004	-0.89
2640.394	-4.61
2654.734	-6.98
2669.025	-9.52
2683.266	-9.8
2697.458	-11.52
2711.602	-11.16
2725.697	-8.98
2739.744	-6.8
2753.743	-7.8
2767.695	-13.34
2781.598	-16.7
2795.455	-19.25
2809.264	-18.07
2823.026	-15.7
2836.742	-15.43
2850.412	-16.98
2864.035	-17.52
2877.613	-19.98
2891.145	-24.52
2904.631	-28.89
2918.073	-30.07
2931.469	-29.89
2944.821	-30.07
2958.128	-30.07
2971.39	-29.61
2984.609	-29.7
2997.784	-32.16
3010.915	-35.43
3024.002	-37.34
3037.046	-38.7
3050.048	-37.7
3063.006	-37.16
3075.922	-38.25
3088.795	-39.34
3101.627	-41.89
3114.416	-42.43
3127.163	-44.25
3139.869	-45.25
3152.533	-45.34
3165.157	-44.16
3177.739	-43.7
3190.28	-44.16
3202.781	-44.8
3215.241	-45.61
3227.661	-47.34
3240.041	-49.61
3252.382	-50.8
3264.682	-52.7
3276.943	-51.43
3289.165	-49.8
3301.348	-48.98
3313.492	-48.89
3325.597	-50.52
3337.663	-51.52
3349.691	-52.25
3361.681	-54.16
3373.633	-55.8
3385.547	-56.7
3397.424	-55.25
3409.263	-55.34
3421.065	-54.8
3432.829	-54.34
3444.557	-53.16
3456.247	-52.43
3467.902	-51.43
3479.519	-53.34
3491.101	-55.07
3502.646	-55.8
3514.155	-55.98
3525.629	-56.16
3537.067	-55.34
3548.469	-54.16
3559.837	-54.16
3571.169	-53.43
3582.466	-53.61
3593.728	-55.52
3604.956	-57.98
3616.149	-59.25
3627.307	-59.52
3638.432	-59.8
3649.523	-59.34
3660.579	-58.89
3671.602	-58.16
3682.591	-57.25
3693.547	-55.8
3704.47	-56.52
3715.359	-57.34
3726.216	-59.34
3737.039	-61.16
3747.83	-61.16
3758.589	-60.52
3769.315	-60.07
3780.008	-62.61
3790.67	-62.7
3801.299	-59.25
3811.897	-57.16
3822.463	-58.7
3832.998	-60.89
3843.501	-61.7
3853.973	-60.61
3864.414	-49.16
3874.823	-5.43
3885.202	5.39
3895.55	-10.61
3905.868	-50.7
3916.155	-57.98
3926.411	-60.07
3936.638	-60.98
3946.834	-60.98
3957	-59.16
3967.137	-56.52
3977.244	-55.89
3987.321	-54.61
3997.369	-56.07
4007.388	-58.52
4017.377	-59.98
4027.338	-60.34
4037.269	-59.89
4047.172	-59.07
4057.046	-57.89
4066.891	-57.8
4076.708	-57.61
4086.497	-58.43
4096.257	-37.61
4105.989	-1.34
4115.694	-2.98
4125.37	-33.61
4135.019	-61.36
4142.237	-59.92

File: Alu-EC-control 30s,I=1, BC=3, 1sta _RamanShift_3.txt
Data from Alu-control 30s,I=1, BC=3, 1sta _RamanShift_3.txt Node

Date: Thu Aug 24 13:31:21 IDT 2017
User: aro
Spectrometer: QEPB0276
Trigger mode: 0
Integration Time (sec): 3.000000E1
Scans to average: 1
Electric dark correction enabled: true
Nonlinearity correction enabled: false
Boxcar width: 5
XAxis mode: Raman Shifts
Number of Pixels in Spectrum: 1044
>>>>>Begin Spectral Data<<<<<
160.701	171.75
184.826	504.65
208.845	865.57
232.758	1162.3
256.565	1255.75
280.267	1349.75
303.865	1441.11
327.359	1515.66
350.751	1611.84
374.04	1730.48
397.228	2046.57
420.315	2110.75
443.302	2041.02
466.189	1682.11
488.978	1468.48
511.668	1172.39
534.261	854.93
556.756	683.75
579.155	634.93
601.459	609.66
623.667	656.02
645.781	655.02
667.8	613.3
689.726	483.75
711.56	451.02
733.301	473.75
754.951	498.02
776.509	535.02
797.977	540.3
819.355	529.3
840.644	475.11
861.844	414.84
882.955	365.93
903.979	343.48
924.916	334.84
945.766	330.48
966.529	324.11
987.208	319.66
1007.801	322.84
1028.309	336.84
1048.734	347.3
1069.075	349.75
1089.333	337.93
1109.509	318.66
1129.602	302.2
1149.614	300.93
1169.545	308.02
1189.395	311.02
1209.165	307.2
1228.856	304.11
1248.467	290.75
1268	275.39
1287.455	265.39
1306.832	267.11
1326.132	266.39
1345.354	261.3
1364.501	252.84
1383.572	244.11
1402.567	233.75
1421.487	229.39
1440.333	233.93
1459.104	238.93
1477.802	241.48
1496.426	245.66
1514.978	246.57
1533.457	247.84
1551.864	249.2
1570.199	239.93
1588.464	218.75
1606.657	207.3
1624.78	201.84
1642.834	201.11
1660.817	205.66
1678.732	211.11
1696.577	207.84
1714.355	197.11
1732.064	180.02
1749.705	167.84
1767.28	163.75
1784.787	160.93
1802.228	155.93
1819.603	141.93
1836.913	131.75
1854.156	128.75
1871.335	128.11
1888.449	132.11
1905.499	134.84
1922.485	138.02
1939.408	135.84
1956.267	126.3
1973.063	113.84
1989.797	104.48
2006.469	99.11
2023.078	94.39
2039.627	90.3
2056.114	90.84
2072.54	95.2
2088.906	97.75
2105.211	93.2
2121.457	87.66
2137.643	81.39
2153.77	74.11
2169.838	65.93
2185.848	59.66
2201.799	56.2
2217.693	56.11
2233.529	56.48
2249.307	55.3
2265.029	51.11
2280.694	48.2
2296.302	43.66
2311.854	56.75
2327.351	74.11
2342.792	69.48
2358.178	37.75
2373.508	28.2
2388.785	26.3
2404.007	24.02
2419.174	19.84
2434.289	18.39
2449.349	16.66
2464.356	14.3
2479.311	11.48
2494.213	11.2
2509.062	12.75
2523.859	12.84
2538.605	10.57
2553.299	10.93
2567.941	9.11
2582.533	6.3
2597.073	2.84
2611.564	0.93
2626.004	-0.61
2640.394	-3.61
2654.734	-6.34
2669.025	-7.16
2683.266	-8.25
2697.458	-10.43
2711.602	-12.43
2725.697	-12.07
2739.744	-10.34
2753.743	-10.43
2767.695	-11.98
2781.598	-14.8
2795.455	-16.98
2809.264	-17.61
2823.026	-16.61
2836.742	-17.52
2850.412	-19.25
2864.035	-19.89
2877.613	-19.98
2891.145	-21.89
2904.631	-26.07
2918.073	-28.7
2931.469	-30.16
2944.821	-30.16
2958.128	-30.07
2971.39	-30.89
2984.609	-31.8
2997.784	-33.89
3010.915	-36.16
3024.002	-37.98
3037.046	-39.16
3050.048	-38.25
3063.006	-38.52
3075.922	-37.98
3088.795	-38.07
3101.627	-39.98
3114.416	-41.7
3127.163	-44.34
3139.869	-45.07
3152.533	-46.43
3165.157	-46.25
3177.739	-45.16
3190.28	-44.16
3202.781	-44.07
3215.241	-45.07
3227.661	-45.7
3240.041	-49.16
3252.382	-50.61
3264.682	-52.25
3276.943	-51.98
3289.165	-51.43
3301.348	-51.43
3313.492	-49.61
3325.597	-48.34
3337.663	-49.34
3349.691	-49.7
3361.681	-51.43
3373.633	-53.43
3385.547	-53.98
3397.424	-54.98
3409.263	-55.34
3421.065	-55.34
3432.829	-53.52
3444.557	-51.8
3456.247	-51.7
3467.902	-51.52
3479.519	-53.61
3491.101	-55.43
3502.646	-56.98
3514.155	-57.7
3525.629	-57.07
3537.067	-55.34
3548.469	-53.8
3559.837	-52.98
3571.169	-54.16
3582.466	-53.89
3593.728	-55.61
3604.956	-56.98
3616.149	-58.61
3627.307	-59.34
3638.432	-59.07
3649.523	-58.8
3660.579	-59.07
3671.602	-59.98
3682.591	-59.07
3693.547	-57.89
3704.47	-58.61
3715.359	-59.89
3726.216	-61.89
3737.039	-61.8
3747.83	-59.89
3758.589	-58.34
3769.315	-57.98
3780.008	-60.98
3790.67	-61.8
3801.299	-60.61
3811.897	-58.89
3822.463	-59.43
3832.998	-59.98
3843.501	-59.52
3853.973	-58.61
3864.414	-47.8
3874.823	-4.16
3885.202	6.66
3895.55	-10.52
3905.868	-52.89
3916.155	-60.52
3926.411	-61.8
3936.638	-60.16
3946.834	-59.25
3957	-56.52
3967.137	-55.16
3977.244	-56.52
3987.321	-57.16
3997.369	-58.43
4007.388	-60.89
4017.377	-61.52
4027.338	-60.7
4037.269	-58.89
4047.172	-56.52
4057.046	-55.43
4066.891	-55.7
4076.708	-56.7
4086.497	-59.25
4096.257	-39.7
4105.989	-3.25
4115.694	-4.61
4125.37	-35.61
4135.019	-63.36
4142.237	-62.08