Folder: Water/Data/Raman/2017-08-24 - Glass, alluminum 108/Glass

Note: Data/Raman/2017-08-24 - Glass, alluminum 108/Glass/coli colony - 5s - I=1, no fixes_RamanShift_1.txt
Data from coli colony - 5s - I=1, no fixes_RamanShift_1.txt Node
Date: Thu Aug 24 11:27:08 IDT 2017
User: aro
Spectrometer: QEPB0276
Trigger mode: 0
Integration Time (sec): 5.000000E0
Scans to average: 1
Electric dark correction enabled: true
Nonlinearity correction enabled: false
Boxcar width: 0
XAxis mode: Raman Shifts
Number of Pixels in Spectrum: 1044
>>>>>Begin Spectral Data<<<<<
160.701	1.62
166.742	7.62
172.777	26.62
178.805	84.62
184.826	215.62
190.841	460.62
196.849	762.62
202.85	1024.62
208.845	1141.62
214.833	1178.62
220.815	1198.62
226.789	1244.62
232.758	1294.62
238.719	1363.62
244.674	1367.62
250.623	1414.62
256.565	1441.62
262.5	1464.62
268.429	1467.62
274.351	1505.62
280.267	1519.62
286.176	1576.62
292.079	1596.62
297.975	1649.62
303.865	1709.62
309.748	1725.62
315.625	1775.62
321.495	1811.62
327.359	1861.62
333.217	1903.62
339.068	1939.62
344.912	1971.62
350.751	1980.62
356.583	2007.62
362.408	2019.62
368.227	2039.62
374.04	2037.62
379.847	2050.62
385.647	2058.62
391.44	2034.62
397.228	2023.62
403.009	2013.62
408.784	2017.62
414.553	2052.62
420.315	2106.62
426.071	2099.62
431.821	2009.62
437.565	1970.62
443.302	1916.62
449.033	1913.62
454.758	1871.62
460.477	1886.62
466.189	1837.62
471.896	1840.62
477.596	1812.62
483.29	1794.62
488.978	1800.62
494.66	1779.62
500.335	1759.62
506.005	1734.62
511.668	1699.62
517.325	1685.62
522.977	1654.62
528.622	1647.62
534.261	1638.62
539.894	1647.62
545.521	1622.62
551.141	1651.62
556.756	1663.62
562.365	1639.62
567.968	1649.62
573.565	1629.62
579.155	1633.62
584.74	1620.62
590.319	1628.62
595.892	1602.62
601.459	1585.62
607.02	1591.62
612.575	1575.62
618.124	1569.62
623.667	1564.62
629.204	1533.62
634.735	1535.62
640.261	1566.62
645.781	1554.62
651.294	1567.62
656.802	1558.62
662.304	1524.62
667.8	1508.62
673.29	1501.62
678.775	1497.62
684.254	1489.62
689.726	1482.62
695.193	1470.62
700.655	1461.62
706.11	1457.62
711.56	1436.62
717.004	1443.62
722.442	1434.62
727.874	1415.62
733.301	1413.62
738.722	1400.62
744.137	1411.62
749.547	1420.62
754.951	1404.62
760.349	1413.62
765.741	1407.62
771.128	1398.62
776.509	1403.62
781.885	1399.62
787.254	1402.62
792.618	1404.62
797.977	1377.62
803.33	1372.62
808.677	1357.62
814.019	1354.62
819.355	1361.62
824.686	1351.62
830.011	1338.62
835.33	1328.62
840.644	1350.62
845.952	1334.62
851.255	1346.62
856.552	1340.62
861.844	1341.62
867.13	1336.62
872.41	1352.62
877.686	1340.62
882.955	1338.62
888.219	1325.62
893.478	1339.62
898.731	1331.62
903.979	1311.62
909.221	1322.62
914.458	1315.62
919.69	1328.62
924.916	1346.62
930.136	1348.62
935.351	1374.62
940.561	1377.62
945.766	1383.62
950.965	1391.62
956.158	1385.62
961.347	1392.62
966.529	1388.62
971.707	1368.62
976.879	1381.62
982.046	1387.62
987.208	1389.62
992.364	1400.62
997.515	1443.62
1002.66	1456.62
1007.801	1493.62
1012.936	1506.62
1018.066	1573.62
1023.

Note: Data/Raman/2017-08-24 - Glass, alluminum 108/Glass/coli colony - 10s - I=1, bc=5_RamanShift_1.txt
Data from coli colony - 10s - I=1, bc=5_RamanShift_1.txt Node
Date: Thu Aug 24 11:34:08 IDT 2017
User: aro
Spectrometer: QEPB0276
Trigger mode: 0
Integration Time (sec): 1.000000E1
Scans to average: 1
Electric dark correction enabled: true
Nonlinearity correction enabled: false
Boxcar width: 5
XAxis mode: Raman Shifts
Number of Pixels in Spectrum: 1044
>>>>>Begin Spectral Data<<<<<
160.701	281
166.742	468.29
172.777	670.38
178.805	851.11
184.826	1002.3
190.841	1138.55
196.849	1368.82
202.85	1609.73
208.845	1851.64
214.833	2092.18
220.815	2311.91
226.789	2478.36
232.758	2612.18
238.719	2689.36
244.674	2760.73
250.623	2822.18
256.565	2893.36
262.5	2959.64
268.429	3024.55
274.351	3089.36
280.267	3157
286.176	3230
292.079	3301.55
297.975	3379.73
303.865	3465.45
309.748	3553.55
315.625	3639.09
321.495	3729.82
327.359	3805.91
333.217	3883.64
339.068	3954.64
344.912	4013.27
350.751	4065.82
356.583	4114
362.408	4145
368.227	4171.64
374.04	4180.45
379.847	4181.91
385.647	4193.55
391.44	4203.27
397.228	4214
403.009	4211
408.784	4191.64
414.553	4157.45
420.315	4128.36
426.071	4093.09
431.821	4058.55
437.565	4023.55
443.302	3984.64
449.033	3934.73
454.758	3871.18
460.477	3812.09
466.189	3765.27
471.896	3722.73
477.596	3689.45
483.29	3648.91
488.978	3606.18
494.66	3564.73
500.335	3523.09
506.005	3490
511.668	3455.55
517.325	3425.27
522.977	3395
528.622	3366.91
534.261	3341.91
539.894	3318.64
545.521	3309.36
551.141	3294.27
556.756	3287.18
562.365	3279
567.968	3269.45
573.565	3262.45
579.155	3253.27
584.74	3240.55
590.319	3225.27
595.892	3206.18
601.459	3188.09
607.02	3167
612.575	3149.36
618.124	3138.64
623.667	3125.73
629.204	3116.82
634.735	3097.36
640.261	3082.91
645.781	3061.18
651.294	3045.27
656.802	3034.36
662.304	3020.91
667.8	3004.09
673.29	2983.73
678.775	2963.18
684.254	2935.82
689.726	2910.82
695.193	2893.09
700.655	2872.45
706.11	2853
711.56	2836.36
717.004	2821
722.442	2798.55
727.874	2787.55
733.301	2774.09
738.722	2761.91
744.137	2753.27
749.547	2740.82
754.951	2732.09
760.349	2726.09
765.741	2718
771.128	2708.36
776.509	2698.09
781.885	2691.27
787.254	2680
792.618	2666.27
797.977	2658.91
803.33	2642
808.677	2630.09
814.019	2616.45
819.355	2605
824.686	2594.82
830.011	2588.91
835.33	2583.73
840.644	2578.18
845.952	2570
851.255	2571.82
856.552	2564.82
861.844	2560.55
867.13	2555.55
872.41	2554.09
877.686	2550.09
882.955	2543.09
888.219	2538.45
893.478	2538
898.731	2539.82
903.979	2542.73
909.221	2542.55
914.458	2550.55
919.69	2556.55
924.916	2565.82
930.136	2584.27
935.351	2590.91
940.561	2607.09
945.766	2620.64
950.965	2632.91
956.158	2636.09
961.347	2648.18
966.529	2657.18
971.707	2672
976.879	2689.09
982.046	2711.73
987.208	2739.64
992.364	2776.45
997.515	2817.91
1002.66	2862.64
1007.801	2916.73
1012.936	2973.27
1018.066	3027.82
1023.19	3095.55
1028.309	3160.45
1033.423	3217.73
1038.53

File: glass - 10s - I=1, bc=5_RamanShift_2.txt
Data from subtilis colony - 10s - I=1, bc=5_RamanShift_2.txt Node

Date: Thu Aug 24 11:31:58 IDT 2017
User: aro
Spectrometer: QEPB0276
Trigger mode: 0
Integration Time (sec): 1.000000E1
Scans to average: 1
Electric dark correction enabled: true
Nonlinearity correction enabled: false
Boxcar width: 5
XAxis mode: Raman Shifts
Number of Pixels in Spectrum: 1044
>>>>>Begin Spectral Data<<<<<
160.701	239.38
184.826	857.98
208.845	1596.33
232.758	2267.97
256.565	2529.24
280.267	2778.15
303.865	3080.15
327.359	3410.88
350.751	3671.6
374.04	3798.42
397.228	3848.06
420.315	3772.15
443.302	3631.78
466.189	3418.78
488.978	3258.51
511.668	3106.97
534.261	3000.06
556.756	2948.24
579.155	2922.69
601.459	2868.24
623.667	2822.51
645.781	2762.06
667.8	2712.06
689.726	2628.88
711.56	2565.33
733.301	2518.06
754.951	2480.51
776.509	2458.24
797.977	2421.78
819.355	2376.78
840.644	2350.6
861.844	2337.97
882.955	2330.42
903.979	2340.78
924.916	2368.88
945.766	2426.15
966.529	2459.15
987.208	2533.97
1007.801	2701.33
1028.309	2933.69
1048.734	3183.88
1069.075	3539.97
1089.333	4042.42
1109.509	4589.88
1129.602	5170.51
1149.614	5841.33
1169.545	6586.88
1189.395	7323.78
1209.165	8102.69
1228.856	8944.88
1248.467	9621.42
1268	10272.51
1287.455	11492.33
1306.832	13749.78
1326.132	16596.51
1345.354	19080.24
1364.501	20487.15
1383.572	20791.69
1402.567	20367.24
1421.487	19717.69
1440.333	18965.15
1459.104	17991.24
1477.802	16870.51
1496.426	15927.69
1514.978	15157.78
1533.457	14302.88
1551.864	13508.97
1570.199	13060.42
1588.464	12746.42
1606.657	12288.78
1624.78	11798.51
1642.834	11570.42
1660.817	11393.51
1678.732	10937.06
1696.577	10122.24
1714.355	9354.24
1732.064	8691.51
1749.705	8129.78
1767.28	7657.78
1784.787	7410.15
1802.228	7190.78
1819.603	6964.97
1836.913	6877.69
1854.156	6979.69
1871.335	7073.24
1888.449	6998.33
1905.499	6791.06
1922.485	6478.15
1939.408	5982.88
1956.267	5232.78
1973.063	4419.33
1989.797	3729.97
2006.469	3232.88
2023.078	2813.51
2039.627	2449.06
2056.114	2177.78
2072.54	2005.24
2088.906	1839.33
2105.211	1674.88
2121.457	1507.78
2137.643	1384.6
2153.77	1281.51
2169.838	1201.51
2185.848	1123.24
2201.799	1074.06
2217.693	1037.69
2233.529	1005.69
2249.307	962.42
2265.029	918.69
2280.694	874.97
2296.302	839.33
2311.854	804.6
2327.351	783.88
2342.792	765.6
2358.178	762.24
2373.508	762.78
2388.785	757.51
2404.007	741.6
2419.174	730.88
2434.289	714.78
2449.349	692.15
2464.356	673.97
2479.311	654.33
2494.213	642.06
2509.062	633.51
2523.859	617.88
2538.605	606.06
2553.299	594.88
2567.941	576.51
2582.533	554.6
2597.073	527.42
2611.564	507.51
2626.004	482.88
2640.394	462.33
2654.734	442.06
2669.025	419.06
2683.266	401.88
2697.458	378.15
2711.602	367.24
2725.697	353.51
2739.744	346.97
2753.743	331.24
2767.695	314.51
2781.598	304.97
2795.455	302.15
2809.264	304.6
2823.026	303.42
2836.742	294.15
2850.412	289.78
2864.035	283.15
2877.613	283.33
2891.145	271.06
2904.631	270.88
2918.073	270.42
2931.469	279.88
2944.821	286.88
2958.128	295.97
2971.39	312.33
2984.609	331.24
2997.784	355.51
3010.915	373.24
3024.002	395.51
3037.046	415.51
3050.048	459.42
3063.006	505.51
3075.922	562.42
3088.795	618.51
3101.627	658.51
3114.416	711.33
3127.163	760.97
3139.869	813.06
3152.533	849.78
3165.157	880.78
3177.739	914.88
3190.28	981.33
3202.781	1056.6
3215.241	1141.6
3227.661	1231.6
3240.041	1318.15
3252.382	1409.24
3264.682	1471.6
3276.943	1496.33
3289.165	1464.97
3301.348	1391.24
3313.492	1318.33
3325.597	1249.15
3337.663	1194.88
3349.691	1132.24
3361.681	1060.06
3373.633	970.97
3385.547	879.69
3397.424	803.42
3409.263	734.06
3421.065	677.6
3432.829	615.69
3444.557	550.06
3456.247	487.33
3467.902	427.15
3479.519	376.88
3491.101	336.06
3502.646	292.24
3514.155	258.78
3525.629	220.33
3537.067	184.15
3548.469	153.69
3559.837	137.15
3571.169	117.06
3582.466	106.78
3593.728	92.69
3604.956	78.24
3616.149	69.6
3627.307	58.24
3638.432	52.24
3649.523	41.33
3660.579	41.6
3671.602	35.51
3682.591	28.6
3693.547	20.42
3704.47	17.6
3715.359	10.33
3726.216	7.88
3737.039	1.69
3747.83	0.69
3758.589	-7.85
3769.315	-9.12
3780.008	-13.12
3790.67	-13.49
3801.299	-22.22
3811.897	-22.67
3822.463	-27.76
3832.998	-25.22
3843.501	-33.22
3853.973	-34.58
3864.414	-30.22
3874.823	-20.94
3885.202	-18.49
3895.55	-26.94
3905.868	-35.49
3916.155	-33.67
3926.411	-35.31
3936.638	-36.49
3946.834	-35.67
3957	-32.22
3967.137	-32.85
3977.244	-39.49
3987.321	-35.31
3997.369	-37.22
4007.388	-37.85
4017.377	-37.76
4027.338	-34.76
4037.269	-39.03
4047.172	-34.03
4057.046	-35.31
4066.891	-32.85
4076.708	-33.49
4086.497	-42.4
4096.257	-34.58
4105.989	-30.4
4115.694	-20.58
4125.37	-33.03
4135.019	-43.12
4142.237	-50.29

File: Glass only - 5s - I=1, no fixes_RamanShift_1.txt
Data from Glass only - 5s - I=1, no fixes_RamanShift_1.txt Node

Date: Thu Aug 24 11:23:13 IDT 2017
User: aro
Spectrometer: QEPB0276
Trigger mode: 0
Integration Time (sec): 5.000000E0
Scans to average: 1
Electric dark correction enabled: true
Nonlinearity correction enabled: false
Boxcar width: 0
XAxis mode: Raman Shifts
Number of Pixels in Spectrum: 1044
>>>>>Begin Spectral Data<<<<<
160.701	3
184.826	124
208.845	675
232.758	767
256.565	861
280.267	939
303.865	1087
327.359	1233
350.751	1369
374.04	1408
397.228	1387
420.315	1468
443.302	1289
466.189	1191
488.978	1129
511.668	1033
534.261	970
556.756	970
579.155	952
601.459	922
623.667	885
645.781	893
667.8	836
689.726	800
711.56	759
733.301	751
754.951	738
776.509	706
797.977	692
819.355	666
840.644	655
861.844	654
882.955	645
903.979	640
924.916	664
945.766	687
966.529	710
987.208	722
1007.801	826
1028.309	929
1048.734	1047
1069.075	1196
1089.333	1469
1109.509	1749
1129.602	2008
1149.614	2341
1169.545	2732
1189.395	3068
1209.165	3438
1228.856	3918
1248.467	4249
1268	4448
1287.455	4909
1306.832	6141
1326.132	7714
1345.354	9058
1364.501	9768
1383.572	9876
1402.567	9601
1421.487	9191
1440.333	8919
1459.104	8443
1477.802	7695
1496.426	7300
1514.978	7076
1533.457	6569
1551.864	6120
1570.199	5986
1588.464	5914
1606.657	5637
1624.78	5383
1642.834	5296
1660.817	5255
1678.732	5019
1696.577	4610
1714.355	4169
1732.064	4001
1749.705	3670
1767.28	3401
1784.787	3360
1802.228	3286
1819.603	3105
1836.913	3067
1854.156	3160
1871.335	3227
1888.449	3178
1905.499	3054
1922.485	2924
1939.408	2745
1956.267	2334
1973.063	1897
1989.797	1593
2006.469	1360
2023.078	1153
2039.627	961
2056.114	851
2072.54	769
2088.906	689
2105.211	621
2121.457	545
2137.643	485
2153.77	441
2169.838	401
2185.848	378
2201.799	353
2217.693	335
2233.529	336
2249.307	314
2265.029	290
2280.694	273
2296.302	268
2311.854	252
2327.351	241
2342.792	229
2358.178	224
2373.508	233
2388.785	222
2404.007	217
2419.174	215
2434.289	215
2449.349	198
2464.356	189
2479.311	191
2494.213	186
2509.062	187
2523.859	170
2538.605	170
2553.299	165
2567.941	164
2582.533	154
2597.073	148
2611.564	144
2626.004	137
2640.394	134
2654.734	125
2669.025	111
2683.266	116
2697.458	103
2711.602	102
2725.697	94
2739.744	97
2753.743	89
2767.695	84
2781.598	84
2795.455	76
2809.264	82
2823.026	80
2836.742	81
2850.412	83
2864.035	80
2877.613	82
2891.145	81
2904.631	80
2918.073	90
2931.469	90
2944.821	99
2958.128	105
2971.39	112
2984.609	123
2997.784	141
3010.915	153
3024.002	155
3037.046	173
3050.048	194
3063.006	218
3075.922	256
3088.795	275
3101.627	296
3114.416	319
3127.163	354
3139.869	376
3152.533	400
3165.157	408
3177.739	428
3190.28	462
3202.781	500
3215.241	556
3227.661	594
3240.041	637
3252.382	679
3264.682	718
3276.943	728
3289.165	720
3301.348	680
3313.492	644
3325.597	607
3337.663	587
3349.691	559
3361.681	517
3373.633	459
3385.547	420
3397.424	381
3409.263	344
3421.065	329
3432.829	299
3444.557	266
3456.247	234
3467.902	208
3479.519	178
3491.101	163
3502.646	137
3514.155	126
3525.629	112
3537.067	97
3548.469	76
3559.837	66
3571.169	60
3582.466	54
3593.728	43
3604.956	37
3616.149	33
3627.307	30
3638.432	24
3649.523	23
3660.579	18
3671.602	18
3682.591	12
3693.547	7
3704.47	8
3715.359	8
3726.216	6
3737.039	-1
3747.83	0
3758.589	-1
3769.315	-3
3780.008	-1
3790.67	-8
3801.299	-10
3811.897	-12
3822.463	-11
3832.998	-9
3843.501	-15
3853.973	-16
3864.414	-15
3874.823	-13
3885.202	-4
3895.55	-15
3905.868	-19
3916.155	-18
3926.411	-17
3936.638	-16
3946.834	-14
3957	-15
3967.137	-16
3977.244	-12
3987.321	-18
3997.369	-17
4007.388	-14
4017.377	-19
4027.338	-15
4037.269	-22
4047.172	-17
4057.046	-13
4066.891	-15
4076.708	-13
4086.497	-15
4096.257	-20
4105.989	-1
4115.694	-3
4125.37	-15
4135.019	-19
4142.237	-21

File: new glass - 10s - I=1, bc=5_RamanShift_1.txt
Data from new glass - 10s - I=1, bc=5_RamanShift_1.txt Node

Date: Thu Aug 24 11:35:28 IDT 2017
User: aro
Spectrometer: QEPB0276
Trigger mode: 0
Integration Time (sec): 1.000000E1
Scans to average: 1
Electric dark correction enabled: true
Nonlinearity correction enabled: false
Boxcar width: 5
XAxis mode: Raman Shifts
Number of Pixels in Spectrum: 1044
>>>>>Begin Spectral Data<<<<<
160.701	180.12
184.826	637.92
208.845	1190.99
232.758	1695.44
256.565	1900.62
280.267	2096.53
303.865	2348.72
327.359	2637.26
350.751	2871.44
374.04	2981.9
397.228	3029.99
420.315	2956.62
443.302	2826.35
466.189	2623.99
488.978	2477.35
511.668	2335.44
534.261	2235.72
556.756	2192.35
579.155	2174.81
601.459	2125.81
623.667	2076.81
645.781	2021.26
667.8	1970.26
689.726	1891.9
711.56	1835.9
733.301	1796.53
754.951	1768.26
776.509	1748.72
797.977	1720.26
819.355	1677.35
840.644	1648.35
861.844	1631.9
882.955	1626.99
903.979	1643.62
924.916	1667.9
945.766	1724.62
966.529	1765.62
987.208	1848.26
1007.801	2001.9
1028.309	2217.17
1048.734	2466.35
1069.075	2816.35
1089.333	3298.17
1109.509	3829.81
1129.602	4402.62
1149.614	5049.08
1169.545	5764.26
1189.395	6475.81
1209.165	7236.99
1228.856	8051.26
1248.467	8713.35
1268	9357.35
1287.455	10574.99
1306.832	12803.62
1326.132	15635.35
1345.354	18128.08
1364.501	19557.81
1383.572	19873.08
1402.567	19447.9
1421.487	18790.62
1440.333	18032.35
1459.104	17069.62
1477.802	15970.62
1496.426	15045.72
1514.978	14317.17
1533.457	13509.99
1551.864	12756.08
1570.199	12309.26
1588.464	11988.17
1606.657	11553.62
1624.78	11088.35
1642.834	10857.72
1660.817	10681.99
1678.732	10251.44
1696.577	9496.44
1714.355	8771.62
1732.064	8137.81
1749.705	7608.17
1767.28	7168.44
1784.787	6940.99
1802.228	6742.53
1819.603	6532.72
1836.913	6454.9
1854.156	6546.44
1871.335	6640.53
1888.449	6579.17
1905.499	6385.81
1922.485	6075.81
1939.408	5597.62
1956.267	4887.26
1973.063	4107.08
1989.797	3434.44
2006.469	2937.26
2023.078	2523.62
2039.627	2170.99
2056.114	1912.08
2072.54	1742.17
2088.906	1591.81
2105.211	1438.9
2121.457	1284.53
2137.643	1163.17
2153.77	1070.72
2169.838	990.72
2185.848	918.08
2201.799	874.44
2217.693	842.9
2233.529	810.26
2249.307	768.99
2265.029	724.72
2280.694	690.62
2296.302	660.35
2311.854	634.17
2327.351	615.72
2342.792	595.35
2358.178	584.62
2373.508	582.35
2388.785	575.44
2404.007	562.62
2419.174	554.08
2434.289	541.81
2449.349	524.08
2464.356	510.62
2479.311	494.08
2494.213	486.17
2509.062	480.81
2523.859	467.08
2538.605	457.99
2553.299	451.44
2567.941	435.72
2582.533	423.62
2597.073	402.08
2611.564	384.53
2626.004	365.08
2640.394	348.44
2654.734	333.35
2669.025	314.99
2683.266	300.35
2697.458	282.99
2711.602	275.53
2725.697	265.81
2739.744	261.81
2753.743	253.9
2767.695	242.81
2781.598	235.81
2795.455	230.35
2809.264	231.44
2823.026	229.08
2836.742	223.72
2850.412	223.26
2864.035	219.08
2877.613	222.26
2891.145	211.81
2904.631	212.81
2918.073	212.81
2931.469	224.44
2944.821	232.9
2958.128	245.26
2971.39	263.26
2984.609	281.99
2997.784	306.62
3010.915	325.44
3024.002	349.17
3037.046	369.99
3050.048	413.53
3063.006	457.44
3075.922	512.17
3088.795	567.62
3101.627	609.26
3114.416	659.53
3127.163	710.44
3139.869	763.99
3152.533	803.26
3165.157	836.9
3177.739	874.44
3190.28	941.08
3202.781	1016.17
3215.241	1105.17
3227.661	1200.9
3240.041	1286.17
3252.382	1369.81
3264.682	1430.44
3276.943	1451.72
3289.165	1428.44
3301.348	1362.9
3313.492	1294.08
3325.597	1223.81
3337.663	1172.53
3349.691	1109.81
3361.681	1036.17
3373.633	947.35
3385.547	857.26
3397.424	782.81
3409.263	714.72
3421.065	657.9
3432.829	599.44
3444.557	535.99
3456.247	474.26
3467.902	417.26
3479.519	368.44
3491.101	329.26
3502.646	284.26
3514.155	253.17
3525.629	217.99
3537.067	181.99
3548.469	153.17
3559.837	137.08
3571.169	118.72
3582.466	109.08
3593.728	97.08
3604.956	82.35
3616.149	74.62
3627.307	63.62
3638.432	57.81
3649.523	47.44
3660.579	47.44
3671.602	41.53
3682.591	34.72
3693.547	24.35
3704.47	21.53
3715.359	15.72
3726.216	14.62
3737.039	7.99
3747.83	6.9
3758.589	-2.74
3769.315	-3.38
3780.008	-6.38
3790.67	-6.74
3801.299	-14.92
3811.897	-15.28
3822.463	-19.1
3832.998	-17.1
3843.501	-24.92
3853.973	-26.92
3864.414	-23.56
3874.823	-14.47
3885.202	-12.74
3895.55	-20.83
3905.868	-29.56
3916.155	-27.1
3926.411	-29.1
3936.638	-29.01
3946.834	-28.38
3957	-24.38
3967.137	-25.38
3977.244	-31.38
3987.321	-27.01
3997.369	-28.83
4007.388	-30.19
4017.377	-30.47
4027.338	-28.19
4037.269	-32.83
4047.172	-27.56
4057.046	-27.92
4066.891	-25.74
4076.708	-26.19
4086.497	-35.65
4096.257	-28.19
4105.989	-27.01
4115.694	-16.65
4125.37	-26.19
4135.019	-32.93
4142.237	-38.88

File: no glass just plastic - 5s - I=1, no fixes_RamanShift_1.txt
Data from no glass just plastic - 5s - I=1, no fixes_RamanShift_1.txt Node

Date: Thu Aug 24 11:25:23 IDT 2017
User: aro
Spectrometer: QEPB0276
Trigger mode: 0
Integration Time (sec): 5.000000E0
Scans to average: 1
Electric dark correction enabled: true
Nonlinearity correction enabled: false
Boxcar width: 0
XAxis mode: Raman Shifts
Number of Pixels in Spectrum: 1044
>>>>>Begin Spectral Data<<<<<
160.701	5.75
184.826	108.75
208.845	575.75
232.758	634.75
256.565	708.75
280.267	723.75
303.865	768.75
327.359	781.75
350.751	797.75
374.04	818.75
397.228	833.75
420.315	978.75
443.302	853.75
466.189	839.75
488.978	824.75
511.668	765.75
534.261	712.75
556.756	698.75
579.155	697.75
601.459	708.75
623.667	691.75
645.781	726.75
667.8	685.75
689.726	687.75
711.56	687.75
733.301	686.75
754.951	706.75
776.509	711.75
797.977	709.75
819.355	716.75
840.644	691.75
861.844	691.75
882.955	691.75
903.979	684.75
924.916	675.75
945.766	702.75
966.529	688.75
987.208	663.75
1007.801	680.75
1028.309	702.75
1048.734	686.75
1069.075	668.75
1089.333	689.75
1109.509	684.75
1129.602	655.75
1149.614	660.75
1169.545	651.75
1189.395	670.75
1209.165	655.75
1228.856	671.75
1248.467	669.75
1268	643.75
1287.455	625.75
1306.832	648.75
1326.132	652.75
1345.354	635.75
1364.501	586.75
1383.572	557.75
1402.567	531.75
1421.487	543.75
1440.333	561.75
1459.104	566.75
1477.802	548.75
1496.426	538.75
1514.978	541.75
1533.457	511.75
1551.864	483.75
1570.199	496.75
1588.464	496.75
1606.657	481.75
1624.78	465.75
1642.834	472.75
1660.817	477.75
1678.732	475.75
1696.577	456.75
1714.355	429.75
1732.064	428.75
1749.705	403.75
1767.28	382.75
1784.787	384.75
1802.228	373.75
1819.603	340.75
1836.913	350.75
1854.156	358.75
1871.335	370.75
1888.449	368.75
1905.499	357.75
1922.485	364.75
1939.408	366.75
1956.267	343.75
1973.063	309.75
1989.797	296.75
2006.469	296.75
2023.078	296.75
2039.627	285.75
2056.114	291.75
2072.54	293.75
2088.906	305.75
2105.211	289.75
2121.457	268.75
2137.643	271.75
2153.77	265.75
2169.838	262.75
2185.848	251.75
2201.799	244.75
2217.693	241.75
2233.529	244.75
2249.307	239.75
2265.029	232.75
2280.694	215.75
2296.302	210.75
2311.854	210.75
2327.351	214.75
2342.792	205.75
2358.178	210.75
2373.508	213.75
2388.785	224.75
2404.007	211.75
2419.174	214.75
2434.289	208.75
2449.349	210.75
2464.356	209.75
2479.311	200.75
2494.213	200.75
2509.062	197.75
2523.859	195.75
2538.605	191.75
2553.299	190.75
2567.941	190.75
2582.533	185.75
2597.073	177.75
2611.564	176.75
2626.004	165.75
2640.394	164.75
2654.734	158.75
2669.025	152.75
2683.266	153.75
2697.458	141.75
2711.602	137.75
2725.697	128.75
2739.744	133.75
2753.743	125.75
2767.695	114.75
2781.598	120.75
2795.455	122.75
2809.264	117.75
2823.026	119.75
2836.742	122.75
2850.412	115.75
2864.035	116.75
2877.613	109.75
2891.145	103.75
2904.631	103.75
2918.073	95.75
2931.469	88.75
2944.821	92.75
2958.128	89.75
2971.39	80.75
2984.609	76.75
2997.784	74.75
3010.915	69.75
3024.002	65.75
3037.046	60.75
3050.048	57.75
3063.006	60.75
3075.922	68.75
3088.795	60.75
3101.627	60.75
3114.416	56.75
3127.163	62.75
3139.869	56.75
3152.533	51.75
3165.157	49.75
3177.739	47.75
3190.28	41.75
3202.781	36.75
3215.241	33.75
3227.661	35.75
3240.041	34.75
3252.382	34.75
3264.682	30.75
3276.943	23.75
3289.165	24.75
3301.348	19.75
3313.492	21.75
3325.597	20.75
3337.663	21.75
3349.691	12.75
3361.681	17.75
3373.633	17.75
3385.547	10.75
3397.424	11.75
3409.263	11.75
3421.065	10.75
3432.829	13.75
3444.557	7.75
3456.247	8.75
3467.902	4.75
3479.519	8.75
3491.101	10.75
3502.646	-0.25
3514.155	5.75
3525.629	5.75
3537.067	1.75
3548.469	1.75
3559.837	-1.25
3571.169	0.75
3582.466	1.75
3593.728	-4.25
3604.956	-4.25
3616.149	-1.25
3627.307	-4.25
3638.432	-6.25
3649.523	-6.25
3660.579	-8.25
3671.602	-7.25
3682.591	-6.25
3693.547	-6.25
3704.47	-9.25
3715.359	-5.25
3726.216	-9.25
3737.039	-7.25
3747.83	-8.25
3758.589	-9.25
3769.315	-12.25
3780.008	-7.25
3790.67	-10.25
3801.299	-11.25
3811.897	-14.25
3822.463	-13.25
3832.998	-6.25
3843.501	-15.25
3853.973	-14.25
3864.414	-14.25
3874.823	-12.25
3885.202	-2.25
3895.55	-9.25
3905.868	-13.25
3916.155	-15.25
3926.411	-14.25
3936.638	-10.25
3946.834	-12.25
3957	-13.25
3967.137	-13.25
3977.244	-13.25
3987.321	-12.25
3997.369	-12.25
4007.388	-12.25
4017.377	-14.25
4027.338	-14.25
4037.269	-18.25
4047.172	-14.25
4057.046	-14.25
4066.891	-12.25
4076.708	-12.25
4086.497	-14.25
4096.257	-15.25
4105.989	-4.25
4115.694	-1.25
4125.37	-16.25
4135.019	-15.25
4142.237	-15.25