Folder: Water/Data/Raman/2017-10-17 - Joint SERS experiment/ethanol base (part 2)

File: silicon_RamanShift_5.txt
Data from silicon_RamanShift_5.txt Node

Date: Tue Oct 17 17:31:54 IDT 2017
User: aro
Spectrometer: QEPB0276
Trigger mode: 0
Integration Time (sec): 5.000000E0
Scans to average: 3
Electric dark correction enabled: true
Nonlinearity correction enabled: false
Boxcar width: 0
XAxis mode: Raman Shifts
Number of Pixels in Spectrum: 1044
>>>>>Begin Spectral Data<<<<<
160.701	-3.58
184.826	156.75
208.845	820.42
232.758	911.75
256.565	953.42
280.267	900.08
303.865	881.75
327.359	810.75
350.751	774.08
374.04	747.75
397.228	733.75
420.315	750.42
443.302	657.42
466.189	580.75
488.978	495.08
511.668	389.42
534.261	758.42
556.756	719.75
579.155	702.75
601.459	608.42
623.667	570.75
645.781	608.08
667.8	589.42
689.726	557.42
711.56	527.42
733.301	526.08
754.951	556.75
776.509	514.75
797.977	516.08
819.355	554.75
840.644	497.75
861.844	494.08
882.955	482.42
903.979	482.42
924.916	475.42
945.766	509.75
966.529	492.08
987.208	449.42
1007.801	435.42
1028.309	432.42
1048.734	429.08
1069.075	437.08
1089.333	449.75
1109.509	455.08
1129.602	439.75
1149.614	444.08
1169.545	444.42
1189.395	468.75
1209.165	541.42
1228.856	576.42
1248.467	647.42
1268	537.75
1287.455	508.08
1306.832	471.42
1326.132	497.42
1345.354	436.42
1364.501	458.08
1383.572	407.08
1402.567	360.42
1421.487	339.75
1440.333	350.75
1459.104	395.75
1477.802	346.08
1496.426	334.42
1514.978	343.75
1533.457	350.08
1551.864	336.75
1570.199	343.08
1588.464	338.08
1606.657	323.08
1624.78	301.75
1642.834	302.75
1660.817	313.08
1678.732	307.08
1696.577	292.08
1714.355	319.75
1732.064	305.42
1749.705	297.75
1767.28	289.42
1784.787	295.42
1802.228	327.75
1819.603	323.75
1836.913	310.08
1854.156	311.42
1871.335	325.75
1888.449	331.08
1905.499	332.75
1922.485	348.75
1939.408	369.42
1956.267	375.42
1973.063	369.75
1989.797	368.08
2006.469	370.75
2023.078	380.42
2039.627	379.75
2056.114	387.08
2072.54	399.42
2088.906	416.75
2105.211	427.08
2121.457	438.75
2137.643	446.42
2153.77	455.42
2169.838	457.08
2185.848	454.75
2201.799	466.75
2217.693	485.42
2233.529	506.08
2249.307	515.42
2265.029	518.08
2280.694	530.75
2296.302	539.75
2311.854	535.42
2327.351	536.42
2342.792	546.08
2358.178	563.08
2373.508	592.75
2388.785	607.42
2404.007	624.08
2419.174	642.75
2434.289	657.75
2449.349	673.08
2464.356	676.75
2479.311	702.42
2494.213	732.08
2509.062	755.08
2523.859	784.08
2538.605	801.75
2553.299	832.08
2567.941	854.42
2582.533	870.75
2597.073	887.75
2611.564	906.08
2626.004	921.08
2640.394	925.08
2654.734	916.75
2669.025	917.75
2683.266	924.42
2697.458	909.08
2711.602	909.42
2725.697	924.75
2739.744	953.42
2753.743	1015.42
2767.695	1048.08
2781.598	1056.08
2795.455	1059.42
2809.264	1054.75
2823.026	1071.42
2836.742	1074.42
2850.412	1078.42
2864.035	1100.75
2877.613	1122.42
2891.145	1098.42
2904.631	1080.75
2918.073	1073.42
2931.469	1069.08
2944.821	1058.08
2958.128	1044.08
2971.39	1043.08
2984.609	1061.42
2997.784	1097.75
3010.915	1091.75
3024.002	1068.08
3037.046	1023.42
3050.048	1017.42
3063.006	1009.75
3075.922	1015.08
3088.795	1003.42
3101.627	987.75
3114.416	972.42
3127.163	969.08
3139.869	967.08
3152.533	945.08
3165.157	917.75
3177.739	875.42
3190.28	854.75
3202.781	839.42
3215.241	823.42
3227.661	791.42
3240.041	767.42
3252.382	748.42
3264.682	741.08
3276.943	743.42
3289.165	718.75
3301.348	690.75
3313.492	667.08
3325.597	641.08
3337.663	627.75
3349.691	613.75
3361.681	608.08
3373.633	587.75
3385.547	553.08
3397.424	534.75
3409.263	515.42
3421.065	510.75
3432.829	496.75
3444.557	476.08
3456.247	451.08
3467.902	423.42
3479.519	405.75
3491.101	392.42
3502.646	375.75
3514.155	360.75
3525.629	335.42
3537.067	304.42
3548.469	279.75
3559.837	267.08
3571.169	251.08
3582.466	237.08
3593.728	216.75
3604.956	204.08
3616.149	190.08
3627.307	180.42
3638.432	172.42
3649.523	166.75
3660.579	155.42
3671.602	146.75
3682.591	137.42
3693.547	138.42
3704.47	137.75
3715.359	136.42
3726.216	126.75
3737.039	119.42
3747.83	116.42
3758.589	113.08
3769.315	105.42
3780.008	98.42
3790.67	90.75
3801.299	84.75
3811.897	81.08
3822.463	74.08
3832.998	68.75
3843.501	60.42
3853.973	50.75
3864.414	48.08
3874.823	42.75
3885.202	38.08
3895.55	28.75
3905.868	16.42
3916.155	13.42
3926.411	11.08
3936.638	8.08
3946.834	3.08
3957	2.08
3967.137	-0.58
3977.244	-0.92
3987.321	0.75
3997.369	-1.25
4007.388	-1.92
4017.377	-5.92
4027.338	-4.92
4037.269	-5.25
4047.172	-9.25
4057.046	-10.58
4066.891	-9.58
4076.708	-12.25
4086.497	-8.58
4096.257	-17.58
4105.989	-9.92
4115.694	-5.92
4125.37	-11.58
4135.019	-18.58
4142.237	-17.58