Folder: Water/Data/Raman/2017-10-17 - Joint SERS experiment/ethanol base

Note: Data/Raman/2017-10-17 - Joint SERS experiment/ethanol base/bs1_RamanShift_1.txt
Data from bs1_RamanShift_1.txt Node
Date: Tue Oct 17 17:33:24 IDT 2017
User: aro
Spectrometer: QEPB0276
Trigger mode: 0
Integration Time (sec): 5.000000E0
Scans to average: 3
Electric dark correction enabled: true
Nonlinearity correction enabled: false
Boxcar width: 0
XAxis mode: Raman Shifts
Number of Pixels in Spectrum: 1044
>>>>>Begin Spectral Data<<<<<
160.701	-3.46
166.742	6.54
172.777	30.54
178.805	105.21
184.826	296.54
190.841	663.54
196.849	1101.21
202.85	1460.54
208.845	1613.21
214.833	1656.88
220.815	1675.54
226.789	1728.88
232.758	1772.88
238.719	1808.54
244.674	1841.21
250.623	1866.54
256.565	1876.88
262.5	1890.88
268.429	1905.21
274.351	1921.88
280.267	1947.54
286.176	1963.88
292.079	1988.54
297.975	2014.54
303.865	2047.54
309.748	2049.54
315.625	2068.21
321.495	2046.54
327.359	2033.21
333.217	2036.88
339.068	2028.21
344.912	2017.21
350.751	2019.88
356.583	2008.88
362.408	2001.21
368.227	2004.21
374.04	1993.21
379.847	1997.54
385.647	2007.88
391.44	2010.54
397.228	1991.21
403.009	2011.88
408.784	2013.88
414.553	2029.54
420.315	2063.88
426.071	2062.54
431.821	2050.88
437.565	2020.88
443.302	2007.88
449.033	2003.88
454.758	2005.54
460.477	1990.88
466.189	1996.21
471.896	1983.88
477.596	1995.54
483.29	1987.21
488.978	1979.21
494.66	1968.54
500.335	1966.54
506.005	1988.54
511.668	2037.54
517.325	2148.21
522.977	2280.54
528.622	2315.54
534.261	2282.88
539.894	2220.88
545.521	2180.21
551.141	2137.21
556.756	2124.88
562.365	2097.21
567.968	2073.54
573.565	2064.88
579.155	2055.21
584.74	2041.88
590.319	2036.21
595.892	2027.88
601.459	2027.21
607.02	1988.54
612.575	1984.88
618.124	1976.21
623.667	1988.21
629.204	2003.54
634.735	2013.88
640.261	2013.21
645.781	2019.88
651.294	2040.88
656.802	2033.21
662.304	2027.21
667.8	2030.54
673.29	2025.88
678.775	2033.21
684.254	2025.88
689.726	2021.54
695.193	2024.88
700.655	2010.88
706.11	2015.54
711.56	2014.88
717.004	2001.54
722.442	1998.21
727.874	2009.21
733.301	2002.54
738.722	2002.88
744.137	1991.21
749.547	2014.88
754.951	2018.54
760.349	2020.88
765.741	2033.88
771.128	2036.54
776.509	2033.88
781.885	2037.54
787.254	2044.54
792.618	2047.21
797.977	2050.54
803.33	2036.21
808.677	2038.88
814.019	2038.88
819.355	2040.21
824.686	2027.21
830.011	2038.54
835.33	2049.21
840.644	2054.21
845.952	2070.21
851.255	2070.88
856.552	2096.88
861.844	2094.54
867.13	2118.88
872.41	2113.21
877.686	2119.88
882.955	2113.54
888.219	2111.88
893.478	2089.21
898.731	2089.21
903.979	2079.21
909.221	2089.21
914.458	2089.88
919.69	2108.54
924.916	2121.21
930.136	2148.54
935.351	2187.88
940.561	2206.21
945.766	2226.21
950.965	2237.21
956.158	2221.54
961.347	2208.54
966.529	2187.88
971.707	2157.21
976.879	2140.21
982.046	2129.54
987.208	2120.88
992.364	2108.54
997.515	2108.88
1002.66	2127.54
1007.801	2140.21
1012.936	2160.54
1018.066	2190.21
1023.19	2187.54
1028.309	2197.

Note: Data/Raman/2017-10-17 - Joint SERS experiment/ethanol base/bs1_RamanShift_2.txt
Data from bs1_RamanShift_2.txt Node
Date: Tue Oct 17 17:34:09 IDT 2017
User: aro
Spectrometer: QEPB0276
Trigger mode: 0
Integration Time (sec): 5.000000E0
Scans to average: 3
Electric dark correction enabled: true
Nonlinearity correction enabled: false
Boxcar width: 0
XAxis mode: Raman Shifts
Number of Pixels in Spectrum: 1044
>>>>>Begin Spectral Data<<<<<
160.701	-4.83
166.742	8.17
172.777	32.83
178.805	114.17
184.826	327.83
190.841	704.83
196.849	1194.17
202.85	1567.17
208.845	1713.5
214.833	1758.83
220.815	1784.17
226.789	1837.5
232.758	1881.5
238.719	1946.5
244.674	1960.5
250.623	1975.83
256.565	1986.17
262.5	1993.5
268.429	2019.17
274.351	2025.83
280.267	2052.17
286.176	2077.17
292.079	2099.17
297.975	2132.5
303.865	2158.17
309.748	2184.83
315.625	2178.17
321.495	2163.17
327.359	2147.83
333.217	2148.5
339.068	2134.17
344.912	2139.17
350.751	2121.17
356.583	2108.17
362.408	2109.83
368.227	2105.5
374.04	2094.5
379.847	2105.17
385.647	2119.5
391.44	2101.83
397.228	2091.5
403.009	2097.17
408.784	2110.5
414.553	2118.5
420.315	2151.83
426.071	2142.5
431.821	2122.83
437.565	2105.83
443.302	2098.83
449.033	2085.17
454.758	2080.5
460.477	2078.83
466.189	2070.17
471.896	2058.83
477.596	2044.5
483.29	2037.83
488.978	2033.83
494.66	2020.83
500.335	2016.5
506.005	2016.17
511.668	2069.17
517.325	2172.5
522.977	2288.5
528.622	2361.83
534.261	2338.17
539.894	2301.5
545.521	2249.5
551.141	2216.83
556.756	2195.17
562.365	2171.83
567.968	2148.17
573.565	2113.83
579.155	2117.17
584.74	2109.83
590.319	2107.5
595.892	2088.5
601.459	2063.5
607.02	2052.5
612.575	2027.17
618.124	2034.5
623.667	2029.83
629.204	2052.5
634.735	2067.5
640.261	2075.17
645.781	2072.17
651.294	2092.83
656.802	2100.5
662.304	2087.5
667.8	2092.17
673.29	2089.17
678.775	2094.17
684.254	2085.17
689.726	2091.83
695.193	2075.83
700.655	2071.5
706.11	2055.17
711.56	2044.17
717.004	2055.17
722.442	2045.5
727.874	2054.83
733.301	2058.83
738.722	2053.17
744.137	2065.83
749.547	2058.5
754.951	2060.5
760.349	2065.5
765.741	2061.17
771.128	2073.5
776.509	2076.5
781.885	2078.17
787.254	2077.83
792.618	2092.17
797.977	2067.83
803.33	2068.83
808.677	2075.5
814.019	2084.83
819.355	2077.17
824.686	2067.5
830.011	2079.5
835.33	2078.17
840.644	2081.5
845.952	2097.17
851.255	2109.83
856.552	2119.83
861.844	2132.83
867.13	2145.83
872.41	2142.83
877.686	2135.17
882.955	2128.83
888.219	2131.83
893.478	2119.17
898.731	2111.17
903.979	2098.83
909.221	2110.17
914.458	2105.17
919.69	2123.83
924.916	2140.5
930.136	2171.5
935.351	2194.5
940.561	2239.5
945.766	2246.5
950.965	2256.5
956.158	2240.5
961.347	2226.17
966.529	2204.17
971.707	2177.83
976.879	2151.5
982.046	2132.83
987.208	2127.83
992.364	2127.17
997.515	2115.5
1002.66	2128.83
1007.801	2143.17
1012.936	2163.17
1018.066	2178.5
1023.19	2190.17
1028.309	2196.83
1033.423	2205.83
1038.532	2191.5
1043.636	2172

Note: Data/Raman/2017-10-17 - Joint SERS experiment/ethanol base/Conditions.txt
Time: 5s
I: 0.5
Height: 6 (optimized)

File: silicon_RamanShift_1.txt
Data from silicon_RamanShift_1.txt Node

Date: Tue Oct 17 17:27:09 IDT 2017
User: aro
Spectrometer: QEPB0276
Trigger mode: 0
Integration Time (sec): 5.000000E0
Scans to average: 3
Electric dark correction enabled: true
Nonlinearity correction enabled: false
Boxcar width: 0
XAxis mode: Raman Shifts
Number of Pixels in Spectrum: 1044
>>>>>Begin Spectral Data<<<<<
160.701	-3.04
184.826	121.63
208.845	627.63
232.758	676.29
256.565	700.63
280.267	712.63
303.865	748.96
327.359	716.96
350.751	679.96
374.04	653.29
397.228	627.96
420.315	658.63
443.302	560.63
466.189	475.96
488.978	382.63
511.668	264.29
534.261	647.96
556.756	609.29
579.155	552.63
601.459	506.29
623.667	469.63
645.781	492.29
667.8	478.63
689.726	458.63
711.56	433.96
733.301	418.63
754.951	418.29
776.509	408.96
797.977	406.96
819.355	394.29
840.644	385.29
861.844	376.29
882.955	369.96
903.979	355.96
924.916	362.63
945.766	404.96
966.529	377.29
987.208	350.29
1007.801	320.96
1028.309	319.96
1048.734	308.29
1069.075	291.29
1089.333	295.29
1109.509	292.29
1129.602	271.63
1149.614	269.29
1169.545	272.96
1189.395	263.29
1209.165	260.63
1228.856	262.96
1248.467	257.96
1268	241.96
1287.455	237.96
1306.832	239.63
1326.132	236.29
1345.354	222.63
1364.501	220.96
1383.572	235.29
1402.567	221.63
1421.487	208.63
1440.333	213.96
1459.104	212.29
1477.802	210.63
1496.426	212.63
1514.978	222.63
1533.457	229.29
1551.864	222.29
1570.199	216.29
1588.464	217.63
1606.657	208.63
1624.78	201.63
1642.834	208.96
1660.817	218.63
1678.732	218.96
1696.577	213.29
1714.355	229.96
1732.064	226.63
1749.705	213.63
1767.28	210.29
1784.787	217.96
1802.228	240.96
1819.603	240.29
1836.913	234.29
1854.156	239.96
1871.335	245.96
1888.449	257.96
1905.499	259.29
1922.485	271.29
1939.408	287.96
1956.267	295.29
1973.063	290.29
1989.797	288.63
2006.469	299.29
2023.078	310.63
2039.627	309.29
2056.114	313.63
2072.54	334.63
2088.906	352.96
2105.211	361.63
2121.457	372.63
2137.643	384.63
2153.77	388.29
2169.838	394.63
2185.848	396.63
2201.799	403.96
2217.693	426.29
2233.529	446.96
2249.307	453.29
2265.029	457.29
2280.694	472.29
2296.302	484.29
2311.854	485.96
2327.351	484.63
2342.792	501.96
2358.178	517.29
2373.508	549.29
2388.785	563.63
2404.007	575.96
2419.174	590.96
2434.289	611.96
2449.349	624.96
2464.356	634.96
2479.311	652.63
2494.213	687.96
2509.062	714.63
2523.859	752.63
2538.605	762.96
2553.299	791.63
2567.941	808.96
2582.533	829.29
2597.073	844.63
2611.564	872.29
2626.004	888.63
2640.394	893.63
2654.734	889.63
2669.025	902.63
2683.266	904.29
2697.458	892.63
2711.602	888.63
2725.697	898.29
2739.744	933.63
2753.743	993.96
2767.695	1018.29
2781.598	1031.63
2795.455	1039.29
2809.264	1050.29
2823.026	1051.63
2836.742	1057.29
2850.412	1072.29
2864.035	1085.29
2877.613	1112.29
2891.145	1089.63
2904.631	1071.29
2918.073	1059.63
2931.469	1060.96
2944.821	1063.96
2958.128	1047.29
2971.39	1051.29
2984.609	1064.29
2997.784	1091.63
3010.915	1100.29
3024.002	1065.96
3037.046	1032.96
3050.048	1022.29
3063.006	1022.29
3075.922	1022.96
3088.795	1004.29
3101.627	1002.29
3114.416	984.96
3127.163	973.29
3139.869	986.29
3152.533	950.96
3165.157	924.63
3177.739	887.63
3190.28	857.96
3202.781	847.63
3215.241	826.29
3227.661	807.96
3240.041	782.63
3252.382	755.63
3264.682	755.96
3276.943	753.63
3289.165	732.29
3301.348	701.96
3313.492	677.63
3325.597	650.96
3337.663	641.96
3349.691	633.29
3361.681	615.63
3373.633	589.29
3385.547	566.63
3397.424	545.63
3409.263	529.29
3421.065	527.63
3432.829	507.63
3444.557	483.29
3456.247	455.96
3467.902	433.29
3479.519	414.96
3491.101	400.29
3502.646	390.63
3514.155	368.29
3525.629	341.29
3537.067	314.63
3548.469	290.96
3559.837	277.29
3571.169	262.96
3582.466	247.29
3593.728	232.96
3604.956	211.63
3616.149	199.63
3627.307	188.29
3638.432	182.63
3649.523	171.96
3660.579	161.63
3671.602	152.96
3682.591	146.29
3693.547	142.29
3704.47	143.63
3715.359	141.63
3726.216	133.63
3737.039	122.96
3747.83	118.29
3758.589	113.96
3769.315	112.63
3780.008	106.96
3790.67	97.96
3801.299	91.63
3811.897	88.63
3822.463	79.96
3832.998	72.29
3843.501	65.29
3853.973	56.63
3864.414	51.96
3874.823	49.29
3885.202	41.96
3895.55	31.63
3905.868	21.96
3916.155	18.29
3926.411	14.29
3936.638	9.29
3946.834	5.96
3957	4.96
3967.137	5.29
3977.244	0.96
3987.321	2.63
3997.369	0.29
4007.388	2.63
4017.377	-1.37
4027.338	-0.71
4037.269	-0.71
4047.172	-3.04
4057.046	-3.71
4066.891	-6.37
4076.708	-6.37
4086.497	-7.37
4096.257	-14.71
4105.989	-8.71
4115.694	-4.37
4125.37	-9.37
4135.019	-14.37
4142.237	-14.37

File: silicon_RamanShift_2.txt
Data from silicon_RamanShift_2.txt Node

Date: Tue Oct 17 17:27:54 IDT 2017
User: aro
Spectrometer: QEPB0276
Trigger mode: 0
Integration Time (sec): 5.000000E0
Scans to average: 3
Electric dark correction enabled: true
Nonlinearity correction enabled: false
Boxcar width: 0
XAxis mode: Raman Shifts
Number of Pixels in Spectrum: 1044
>>>>>Begin Spectral Data<<<<<
160.701	-3.21
184.826	123.46
208.845	628.79
232.758	678.46
256.565	713.12
280.267	713.12
303.865	746.46
327.359	716.12
350.751	678.79
374.04	656.46
397.228	626.79
420.315	661.46
443.302	556.46
466.189	473.12
488.978	382.79
511.668	264.46
534.261	640.12
556.756	600.46
579.155	559.12
601.459	507.12
623.667	472.79
645.781	493.12
667.8	478.79
689.726	457.46
711.56	437.79
733.301	420.46
754.951	420.46
776.509	412.79
797.977	402.79
819.355	394.46
840.644	381.46
861.844	377.79
882.955	370.12
903.979	357.79
924.916	359.79
945.766	409.12
966.529	381.79
987.208	351.79
1007.801	326.46
1028.309	318.12
1048.734	308.12
1069.075	296.46
1089.333	296.79
1109.509	290.12
1129.602	277.12
1149.614	270.79
1169.545	271.46
1189.395	262.79
1209.165	259.46
1228.856	261.12
1248.467	259.12
1268	243.79
1287.455	234.79
1306.832	240.12
1326.132	231.46
1345.354	217.46
1364.501	220.46
1383.572	232.12
1402.567	219.79
1421.487	207.46
1440.333	216.46
1459.104	215.12
1477.802	207.46
1496.426	215.46
1514.978	226.79
1533.457	227.12
1551.864	220.46
1570.199	216.12
1588.464	220.46
1606.657	209.79
1624.78	201.79
1642.834	207.79
1660.817	219.79
1678.732	217.46
1696.577	206.79
1714.355	226.46
1732.064	218.12
1749.705	215.79
1767.28	209.12
1784.787	217.12
1802.228	240.46
1819.603	241.46
1836.913	234.12
1854.156	239.46
1871.335	244.79
1888.449	250.46
1905.499	258.12
1922.485	270.79
1939.408	285.46
1956.267	299.12
1973.063	295.46
1989.797	293.46
2006.469	302.79
2023.078	306.12
2039.627	309.12
2056.114	315.79
2072.54	328.79
2088.906	351.12
2105.211	359.46
2121.457	373.46
2137.643	383.79
2153.77	392.12
2169.838	394.12
2185.848	398.12
2201.799	409.79
2217.693	422.46
2233.529	443.46
2249.307	457.46
2265.029	462.79
2280.694	475.46
2296.302	485.46
2311.854	479.79
2327.351	490.12
2342.792	498.79
2358.178	521.46
2373.508	544.79
2388.785	562.79
2404.007	571.12
2419.174	591.46
2434.289	614.12
2449.349	630.12
2464.356	633.79
2479.311	654.79
2494.213	684.12
2509.062	724.12
2523.859	742.79
2538.605	760.79
2553.299	786.46
2567.941	817.12
2582.533	834.46
2597.073	850.79
2611.564	866.46
2626.004	893.79
2640.394	899.12
2654.734	891.46
2669.025	891.12
2683.266	904.46
2697.458	895.12
2711.602	884.12
2725.697	896.79
2739.744	941.12
2753.743	998.46
2767.695	1021.12
2781.598	1032.12
2795.455	1041.79
2809.264	1053.46
2823.026	1050.12
2836.742	1054.12
2850.412	1068.79
2864.035	1089.12
2877.613	1098.12
2891.145	1090.79
2904.631	1071.12
2918.073	1062.79
2931.469	1060.12
2944.821	1065.12
2958.128	1044.12
2971.39	1044.12
2984.609	1062.12
2997.784	1084.79
3010.915	1101.12
3024.002	1068.79
3037.046	1031.12
3050.048	1025.12
3063.006	1024.79
3075.922	1020.46
3088.795	1014.79
3101.627	998.46
3114.416	979.12
3127.163	985.46
3139.869	978.12
3152.533	954.79
3165.157	924.12
3177.739	888.79
3190.28	862.46
3202.781	845.79
3215.241	826.12
3227.661	803.46
3240.041	771.79
3252.382	760.79
3264.682	755.12
3276.943	758.79
3289.165	738.46
3301.348	706.79
3313.492	676.79
3325.597	647.12
3337.663	643.12
3349.691	627.12
3361.681	619.12
3373.633	592.46
3385.547	563.79
3397.424	548.46
3409.263	530.12
3421.065	519.79
3432.829	509.46
3444.557	485.46
3456.247	455.79
3467.902	429.12
3479.519	413.79
3491.101	399.79
3502.646	383.79
3514.155	370.12
3525.629	341.12
3537.067	317.46
3548.469	290.12
3559.837	278.79
3571.169	258.46
3582.466	241.12
3593.728	228.46
3604.956	209.79
3616.149	198.79
3627.307	189.79
3638.432	179.79
3649.523	171.79
3660.579	163.12
3671.602	154.12
3682.591	146.46
3693.547	143.46
3704.47	143.12
3715.359	136.79
3726.216	131.12
3737.039	126.79
3747.83	122.12
3758.589	119.79
3769.315	111.46
3780.008	105.12
3790.67	95.46
3801.299	92.12
3811.897	90.12
3822.463	80.46
3832.998	74.46
3843.501	66.12
3853.973	57.79
3864.414	48.79
3874.823	46.46
3885.202	40.79
3895.55	30.12
3905.868	25.12
3916.155	20.12
3926.411	15.79
3936.638	9.79
3946.834	4.79
3957	4.79
3967.137	3.46
3977.244	4.12
3987.321	4.12
3997.369	2.12
4007.388	3.79
4017.377	-1.21
4027.338	1.79
4037.269	-2.54
4047.172	-3.88
4057.046	-6.88
4066.891	-5.54
4076.708	-7.54
4086.497	-7.54
4096.257	-14.88
4105.989	-9.88
4115.694	-3.21
4125.37	-7.54
4135.019	-14.88
4142.237	-14.88

File: silicon_RamanShift_3.txt
Data from silicon_RamanShift_3.txt Node

Date: Tue Oct 17 17:29:24 IDT 2017
User: aro
Spectrometer: QEPB0276
Trigger mode: 0
Integration Time (sec): 5.000000E0
Scans to average: 3
Electric dark correction enabled: true
Nonlinearity correction enabled: false
Boxcar width: 0
XAxis mode: Raman Shifts
Number of Pixels in Spectrum: 1044
>>>>>Begin Spectral Data<<<<<
160.701	-3.87
184.826	114.46
208.845	584.13
232.758	636.12
256.565	664.79
280.267	665.79
303.865	704.46
327.359	667.12
350.751	636.79
374.04	619.13
397.228	586.79
420.315	620.79
443.302	526.46
466.189	447.46
488.978	361.79
511.668	249.46
534.261	596.13
556.756	570.79
579.155	521.46
601.459	474.79
623.667	439.79
645.781	462.79
667.8	447.46
689.726	427.46
711.56	402.46
733.301	391.13
754.951	391.46
776.509	383.13
797.977	383.13
819.355	367.46
840.644	364.12
861.844	351.13
882.955	345.12
903.979	330.13
924.916	335.79
945.766	377.46
966.529	354.46
987.208	323.13
1007.801	299.46
1028.309	297.12
1048.734	286.79
1069.075	271.13
1089.333	271.13
1109.509	272.46
1129.602	253.79
1149.614	250.79
1169.545	254.13
1189.395	250.46
1209.165	245.46
1228.856	242.79
1248.467	240.12
1268	228.79
1287.455	220.46
1306.832	222.79
1326.132	215.46
1345.354	201.46
1364.501	207.12
1383.572	220.13
1402.567	204.13
1421.487	195.46
1440.333	201.79
1459.104	196.79
1477.802	190.46
1496.426	197.46
1514.978	209.12
1533.457	211.79
1551.864	205.79
1570.199	199.12
1588.464	204.13
1606.657	193.79
1624.78	192.46
1642.834	198.12
1660.817	200.79
1678.732	204.46
1696.577	197.12
1714.355	211.79
1732.064	207.79
1749.705	196.13
1767.28	197.46
1784.787	203.13
1802.228	226.12
1819.603	227.46
1836.913	218.79
1854.156	223.46
1871.335	233.46
1888.449	241.79
1905.499	243.46
1922.485	260.79
1939.408	270.13
1956.267	281.12
1973.063	277.79
1989.797	279.79
2006.469	287.79
2023.078	294.79
2039.627	294.13
2056.114	297.13
2072.54	316.79
2088.906	336.46
2105.211	338.46
2121.457	353.46
2137.643	362.12
2153.77	375.12
2169.838	370.46
2185.848	377.13
2201.799	384.12
2217.693	399.79
2233.529	423.13
2249.307	435.79
2265.029	443.13
2280.694	451.12
2296.302	458.13
2311.854	458.46
2327.351	462.46
2342.792	474.46
2358.178	489.79
2373.508	517.79
2388.785	532.46
2404.007	548.79
2419.174	561.46
2434.289	577.79
2449.349	599.12
2464.356	611.13
2479.311	622.46
2494.213	649.46
2509.062	681.46
2523.859	712.79
2538.605	732.46
2553.299	757.13
2567.941	778.79
2582.533	787.46
2597.073	803.46
2611.564	825.46
2626.004	847.12
2640.394	841.79
2654.734	851.79
2669.025	850.46
2683.266	852.13
2697.458	841.13
2711.602	845.46
2725.697	855.46
2739.744	903.46
2753.743	942.13
2767.695	976.13
2781.598	982.12
2795.455	988.13
2809.264	993.46
2823.026	1004.79
2836.742	1005.46
2850.412	1017.13
2864.035	1044.13
2877.613	1047.46
2891.145	1038.46
2904.631	1021.46
2918.073	1006.13
2931.469	1013.79
2944.821	1009.12
2958.128	999.13
2971.39	997.46
2984.609	1014.12
2997.784	1045.79
3010.915	1050.13
3024.002	1019.13
3037.046	977.13
3050.048	968.46
3063.006	974.46
3075.922	974.13
3088.795	962.46
3101.627	949.46
3114.416	938.79
3127.163	940.13
3139.869	935.13
3152.533	911.13
3165.157	887.79
3177.739	849.13
3190.28	821.46
3202.781	805.79
3215.241	796.46
3227.661	767.46
3240.041	740.13
3252.382	739.13
3264.682	729.46
3276.943	724.12
3289.165	704.79
3301.348	663.12
3313.492	643.79
3325.597	620.46
3337.663	606.79
3349.691	605.79
3361.681	592.12
3373.633	567.79
3385.547	539.79
3397.424	518.79
3409.263	509.46
3421.065	502.13
3432.829	487.46
3444.557	466.12
3456.247	435.13
3467.902	413.46
3479.519	393.79
3491.101	381.46
3502.646	375.13
3514.155	353.46
3525.629	329.13
3537.067	301.13
3548.469	280.46
3559.837	258.12
3571.169	251.13
3582.466	232.46
3593.728	217.12
3604.956	203.79
3616.149	186.79
3627.307	184.13
3638.432	176.46
3649.523	168.79
3660.579	154.79
3671.602	144.79
3682.591	138.13
3693.547	141.13
3704.47	134.13
3715.359	134.13
3726.216	128.13
3737.039	119.46
3747.83	118.13
3758.589	115.13
3769.315	108.46
3780.008	100.12
3790.67	92.13
3801.299	84.13
3811.897	83.46
3822.463	78.13
3832.998	69.79
3843.501	61.13
3853.973	54.13
3864.414	48.79
3874.823	46.79
3885.202	41.13
3895.55	32.13
3905.868	23.12
3916.155	17.46
3926.411	14.46
3936.638	10.79
3946.834	6.13
3957	5.46
3967.137	3.46
3977.244	2.79
3987.321	5.46
3997.369	4.79
4007.388	4.79
4017.377	0.46
4027.338	1.46
4037.269	-0.54
4047.172	-2.87
4057.046	-8.54
4066.891	-6.21
4076.708	-7.54
4086.497	-2.87
4096.257	-11.87
4105.989	-5.54
4115.694	-3.54
4125.37	-6.21
4135.019	-12.21
4142.237	-13.21

File: silicon_RamanShift_4.txt
Data from silicon_RamanShift_4.txt Node

Date: Tue Oct 17 17:30:39 IDT 2017
User: aro
Spectrometer: QEPB0276
Trigger mode: 0
Integration Time (sec): 5.000000E0
Scans to average: 3
Electric dark correction enabled: true
Nonlinearity correction enabled: false
Boxcar width: 0
XAxis mode: Raman Shifts
Number of Pixels in Spectrum: 1044
>>>>>Begin Spectral Data<<<<<
160.701	-1.75
184.826	141.92
208.845	746.92
232.758	844.58
256.565	889.92
280.267	853.92
303.865	838.25
327.359	789.92
350.751	750.58
374.04	722.92
397.228	701.25
420.315	722.25
443.302	630.25
466.189	542.58
488.978	453.58
511.668	336.58
534.261	706.92
556.756	671.92
579.155	625.25
601.459	568.92
623.667	535.58
645.781	559.92
667.8	536.58
689.726	520.58
711.56	501.58
733.301	486.92
754.951	484.92
776.509	478.25
797.977	469.25
819.355	456.58
840.644	452.25
861.844	449.25
882.955	439.25
903.979	430.25
924.916	432.25
945.766	474.92
966.529	451.92
987.208	417.92
1007.801	397.92
1028.309	401.58
1048.734	385.92
1069.075	367.58
1089.333	374.92
1109.509	375.58
1129.602	351.25
1149.614	350.92
1169.545	355.92
1189.395	345.92
1209.165	348.58
1228.856	352.92
1248.467	350.92
1268	333.58
1287.455	327.92
1306.832	339.25
1326.132	340.25
1345.354	316.25
1364.501	318.25
1383.572	342.92
1402.567	317.25
1421.487	307.92
1440.333	312.25
1459.104	305.58
1477.802	300.25
1496.426	304.92
1514.978	328.25
1533.457	326.25
1551.864	316.25
1570.199	302.92
1588.464	307.25
1606.657	300.92
1624.78	280.25
1642.834	282.58
1660.817	281.92
1678.732	277.25
1696.577	265.58
1714.355	288.58
1732.064	277.58
1749.705	275.25
1767.28	265.58
1784.787	273.25
1802.228	300.25
1819.603	297.92
1836.913	286.58
1854.156	288.25
1871.335	302.25
1888.449	305.25
1905.499	309.25
1922.485	321.58
1939.408	340.92
1956.267	349.92
1973.063	343.58
1989.797	343.58
2006.469	350.92
2023.078	354.58
2039.627	349.25
2056.114	361.58
2072.54	375.25
2088.906	396.92
2105.211	407.25
2121.457	415.25
2137.643	432.25
2153.77	428.25
2169.838	432.58
2185.848	437.92
2201.799	441.25
2217.693	462.58
2233.529	479.25
2249.307	496.58
2265.029	501.58
2280.694	508.58
2296.302	517.92
2311.854	520.92
2327.351	513.92
2342.792	528.58
2358.178	555.25
2373.508	576.58
2388.785	592.25
2404.007	605.58
2419.174	618.58
2434.289	638.25
2449.349	653.58
2464.356	658.92
2479.311	683.25
2494.213	709.92
2509.062	743.25
2523.859	766.58
2538.605	782.25
2553.299	811.92
2567.941	830.25
2582.533	852.92
2597.073	864.58
2611.564	886.58
2626.004	906.92
2640.394	906.25
2654.734	909.25
2669.025	900.25
2683.266	915.25
2697.458	901.25
2711.602	896.25
2725.697	903.25
2739.744	943.92
2753.743	999.25
2767.695	1034.58
2781.598	1034.58
2795.455	1047.92
2809.264	1048.58
2823.026	1057.25
2836.742	1057.58
2850.412	1074.58
2864.035	1097.58
2877.613	1105.25
2891.145	1090.92
2904.631	1076.58
2918.073	1065.25
2931.469	1065.92
2944.821	1062.92
2958.128	1040.25
2971.39	1044.25
2984.609	1058.25
2997.784	1087.58
3010.915	1096.92
3024.002	1067.25
3037.046	1033.58
3050.048	1009.92
3063.006	1010.25
3075.922	1018.92
3088.795	1007.25
3101.627	990.25
3114.416	971.92
3127.163	970.25
3139.869	963.92
3152.533	946.58
3165.157	906.92
3177.739	881.58
3190.28	854.58
3202.781	837.25
3215.241	818.92
3227.661	794.58
3240.041	766.25
3252.382	755.92
3264.682	744.92
3276.943	746.58
3289.165	731.58
3301.348	698.58
3313.492	669.25
3325.597	643.92
3337.663	639.25
3349.691	625.58
3361.681	606.58
3373.633	587.25
3385.547	559.92
3397.424	537.92
3409.263	529.25
3421.065	516.92
3432.829	497.58
3444.557	479.58
3456.247	454.58
3467.902	423.58
3479.519	404.58
3491.101	391.92
3502.646	384.58
3514.155	361.25
3525.629	340.92
3537.067	309.92
3548.469	285.25
3559.837	270.25
3571.169	256.92
3582.466	242.58
3593.728	223.25
3604.956	206.58
3616.149	192.58
3627.307	186.25
3638.432	176.25
3649.523	166.92
3660.579	161.25
3671.602	147.58
3682.591	142.25
3693.547	138.92
3704.47	138.58
3715.359	137.58
3726.216	130.58
3737.039	125.92
3747.83	117.25
3758.589	114.25
3769.315	109.92
3780.008	102.25
3790.67	94.92
3801.299	85.25
3811.897	82.25
3822.463	76.58
3832.998	70.92
3843.501	60.25
3853.973	53.92
3864.414	50.58
3874.823	47.92
3885.202	38.58
3895.55	31.58
3905.868	20.58
3916.155	16.58
3926.411	12.92
3936.638	6.58
3946.834	4.25
3957	2.92
3967.137	3.58
3977.244	2.25
3987.321	0.92
3997.369	-1.08
4007.388	1.25
4017.377	-4.08
4027.338	-2.42
4037.269	-2.75
4047.172	-6.75
4057.046	-7.75
4066.891	-8.42
4076.708	-9.08
4086.497	-8.42
4096.257	-17.42
4105.989	-8.42
4115.694	-4.08
4125.37	-9.42
4135.019	-16.75
4142.237	-14.75