Folder: Water/Data/Raman/2017-08-29 - Alluminum 2/Aug 29 2017 - Aluminum 2 (part 6)

File: EC 12 1_RamanShift_3.txt
Data from EC 12 1_RamanShift_3.txt Node

Date: Tue Aug 29 12:13:37 IDT 2017
User: aro
Spectrometer: QEPB0276
Trigger mode: 0
Integration Time (sec): 3.000000E1
Scans to average: 1
Electric dark correction enabled: true
Nonlinearity correction enabled: false
Boxcar width: 0
XAxis mode: Raman Shifts
Number of Pixels in Spectrum: 1044
>>>>>Begin Spectral Data<<<<<
160.701	29.38
184.826	585.38
208.845	2608.38
232.758	2831.38
256.565	2988.38
280.267	3138.38
303.865	3328.38
327.359	3416.38
350.751	3525.38
374.04	3730.38
397.228	3803.38
420.315	5199.38
443.302	3844.38
466.189	3582.38
488.978	3489.38
511.668	2896.38
534.261	2367.38
556.756	2214.38
579.155	2182.38
601.459	2137.38
623.667	2047.38
645.781	2425.38
667.8	1995.38
689.726	1889.38
711.56	1834.38
733.301	1837.38
754.951	1964.38
776.509	1908.38
797.977	1967.38
819.355	1908.38
840.644	1825.38
861.844	1725.38
882.955	1655.38
903.979	1609.38
924.916	1604.38
945.766	1594.38
966.529	1562.38
987.208	1515.38
1007.801	1544.38
1028.309	1588.38
1048.734	1563.38
1069.075	1544.38
1089.333	1546.38
1109.509	1504.38
1129.602	1411.38
1149.614	1430.38
1169.545	1429.38
1189.395	1436.38
1209.165	1404.38
1228.856	1426.38
1248.467	1402.38
1268	1294.38
1287.455	1255.38
1306.832	1283.38
1326.132	1243.38
1345.354	1176.38
1364.501	1142.38
1383.572	1166.38
1402.567	1104.38
1421.487	1087.38
1440.333	1093.38
1459.104	1084.38
1477.802	1022.38
1496.426	1037.38
1514.978	1072.38
1533.457	1069.38
1551.864	1018.38
1570.199	993.38
1588.464	979.38
1606.657	919.38
1624.78	885.38
1642.834	886.38
1660.817	905.38
1678.732	880.38
1696.577	847.38
1714.355	858.38
1732.064	821.38
1749.705	764.38
1767.28	704.38
1784.787	679.38
1802.228	716.38
1819.603	688.38
1836.913	670.38
1854.156	644.38
1871.335	643.38
1888.449	650.38
1905.499	623.38
1922.485	637.38
1939.408	654.38
1956.267	655.38
1973.063	581.38
1989.797	543.38
2006.469	528.38
2023.078	510.38
2039.627	487.38
2056.114	477.38
2072.54	480.38
2088.906	503.38
2105.211	476.38
2121.457	471.38
2137.643	441.38
2153.77	425.38
2169.838	407.38
2185.848	391.38
2201.799	375.38
2217.693	376.38
2233.529	370.38
2249.307	351.38
2265.029	340.38
2280.694	321.38
2296.302	310.38
2311.854	300.38
2327.351	301.38
2342.792	273.38
2358.178	285.38
2373.508	282.38
2388.785	273.38
2404.007	267.38
2419.174	263.38
2434.289	259.38
2449.349	246.38
2464.356	233.38
2479.311	230.38
2494.213	226.38
2509.062	220.38
2523.859	218.38
2538.605	204.38
2553.299	200.38
2567.941	198.38
2582.533	193.38
2597.073	187.38
2611.564	172.38
2626.004	164.38
2640.394	158.38
2654.734	146.38
2669.025	132.38
2683.266	127.38
2697.458	119.38
2711.602	92.38
2725.697	92.38
2739.744	94.38
2753.743	95.38
2767.695	105.38
2781.598	85.38
2795.455	81.38
2809.264	72.38
2823.026	80.38
2836.742	73.38
2850.412	66.38
2864.035	59.38
2877.613	57.38
2891.145	44.38
2904.631	39.38
2918.073	31.38
2931.469	28.38
2944.821	19.38
2958.128	21.38
2971.39	18.38
2984.609	4.38
2997.784	14.38
3010.915	4.38
3024.002	-5.62
3037.046	-9.62
3050.048	-12.62
3063.006	-24.62
3075.922	-19.62
3088.795	-27.62
3101.627	-23.62
3114.416	-18.62
3127.163	-29.62
3139.869	-26.62
3152.533	-35.62
3165.157	-34.62
3177.739	-43.62
3190.28	-46.62
3202.781	-50.62
3215.241	-49.62
3227.661	-55.62
3240.041	-55.62
3252.382	-52.62
3264.682	-60.62
3276.943	-63.62
3289.165	-62.62
3301.348	-65.62
3313.492	-66.62
3325.597	-73.62
3337.663	-72.62
3349.691	-70.62
3361.681	-72.62
3373.633	-67.62
3385.547	-74.62
3397.424	-71.62
3409.263	-77.62
3421.065	-71.62
3432.829	-78.62
3444.557	-78.62
3456.247	-78.62
3467.902	-89.62
3479.519	-83.62
3491.101	-82.62
3502.646	-81.62
3514.155	-83.62
3525.629	-85.62
3537.067	-83.62
3548.469	-86.62
3559.837	-87.62
3571.169	-91.62
3582.466	-85.62
3593.728	-86.62
3604.956	-90.62
3616.149	-94.62
3627.307	-97.62
3638.432	-95.62
3649.523	-95.62
3660.579	-93.62
3671.602	-88.62
3682.591	-93.62
3693.547	-87.62
3704.47	-98.62
3715.359	-97.62
3726.216	-97.62
3737.039	-91.62
3747.83	-98.62
3758.589	-95.62
3769.315	-95.62
3780.008	-103.62
3790.67	-96.62
3801.299	-94.62
3811.897	-101.62
3822.463	-98.62
3832.998	-92.62
3843.501	-92.62
3853.973	-95.62
3864.414	-92.62
3874.823	-51.62
3885.202	72.38
3895.55	-74.62
3905.868	-95.62
3916.155	-95.62
3926.411	-93.62
3936.638	-97.62
3946.834	-98.62
3957	-98.62
3967.137	-100.62
3977.244	-99.62
3987.321	-95.62
3997.369	-99.62
4007.388	-97.62
4017.377	-90.62
4027.338	-93.62
4037.269	-92.62
4047.172	-92.62
4057.046	-91.62
4066.891	-99.62
4076.708	-101.62
4086.497	-95.62
4096.257	-98.62
4105.989	39.38
4115.694	28.38
4125.37	-95.62
4135.019	-100.62
4142.237	-105.62

File: EC 12 2_RamanShift_1.txt
Data from EC 12 2_RamanShift_1.txt Node

Date: Tue Aug 29 12:15:07 IDT 2017
User: aro
Spectrometer: QEPB0276
Trigger mode: 0
Integration Time (sec): 3.000000E1
Scans to average: 1
Electric dark correction enabled: true
Nonlinearity correction enabled: false
Boxcar width: 0
XAxis mode: Raman Shifts
Number of Pixels in Spectrum: 1044
>>>>>Begin Spectral Data<<<<<
160.701	40.88
184.826	499.88
208.845	2249.88
232.758	2430.88
256.565	2629.88
280.267	2798.88
303.865	2988.88
327.359	3103.88
350.751	3192.88
374.04	3429.88
397.228	3462.88
420.315	5023.88
443.302	3560.88
466.189	3267.88
488.978	3166.88
511.668	2516.88
534.261	1965.88
556.756	1771.88
579.155	1738.88
601.459	1714.88
623.667	1635.88
645.781	2031.88
667.8	1541.88
689.726	1442.88
711.56	1405.88
733.301	1405.88
754.951	1568.88
776.509	1501.88
797.977	1579.88
819.355	1520.88
840.644	1434.88
861.844	1340.88
882.955	1256.88
903.979	1233.88
924.916	1210.88
945.766	1189.88
966.529	1173.88
987.208	1129.88
1007.801	1138.88
1028.309	1206.88
1048.734	1202.88
1069.075	1173.88
1089.333	1171.88
1109.509	1145.88
1129.602	1066.88
1149.614	1054.88
1169.545	1075.88
1189.395	1059.88
1209.165	1060.88
1228.856	1077.88
1248.467	1030.88
1268	977.88
1287.455	939.88
1306.832	959.88
1326.132	937.88
1345.354	871.88
1364.501	860.88
1383.572	842.88
1402.567	807.88
1421.487	793.88
1440.333	820.88
1459.104	814.88
1477.802	772.88
1496.426	764.88
1514.978	793.88
1533.457	792.88
1551.864	756.88
1570.199	730.88
1588.464	717.88
1606.657	684.88
1624.78	659.88
1642.834	662.88
1660.817	667.88
1678.732	647.88
1696.577	634.88
1714.355	638.88
1732.064	594.88
1749.705	554.88
1767.28	521.88
1784.787	495.88
1802.228	533.88
1819.603	503.88
1836.913	481.88
1854.156	478.88
1871.335	476.88
1888.449	473.88
1905.499	449.88
1922.485	478.88
1939.408	479.88
1956.267	468.88
1973.063	421.88
1989.797	384.88
2006.469	378.88
2023.078	375.88
2039.627	349.88
2056.114	344.88
2072.54	353.88
2088.906	372.88
2105.211	352.88
2121.457	328.88
2137.643	323.88
2153.77	309.88
2169.838	295.88
2185.848	280.88
2201.799	271.88
2217.693	264.88
2233.529	274.88
2249.307	252.88
2265.029	248.88
2280.694	229.88
2296.302	220.88
2311.854	213.88
2327.351	217.88
2342.792	199.88
2358.178	197.88
2373.508	200.88
2388.785	193.88
2404.007	181.88
2419.174	189.88
2434.289	173.88
2449.349	161.88
2464.356	153.88
2479.311	144.88
2494.213	145.88
2509.062	147.88
2523.859	145.88
2538.605	139.88
2553.299	143.88
2567.941	136.88
2582.533	138.88
2597.073	131.88
2611.564	109.88
2626.004	108.88
2640.394	102.88
2654.734	100.88
2669.025	87.88
2683.266	87.88
2697.458	65.88
2711.602	59.88
2725.697	53.88
2739.744	55.88
2753.743	58.88
2767.695	60.88
2781.598	46.88
2795.455	45.88
2809.264	43.88
2823.026	51.88
2836.742	49.88
2850.412	36.88
2864.035	35.88
2877.613	30.88
2891.145	22.88
2904.631	18.88
2918.073	6.88
2931.469	8.88
2944.821	0.88
2958.128	-4.12
2971.39	-10.12
2984.609	-6.12
2997.784	-3.12
3010.915	-12.12
3024.002	-19.12
3037.046	-18.12
3050.048	-29.12
3063.006	-32.12
3075.922	-31.12
3088.795	-36.12
3101.627	-23.12
3114.416	-34.12
3127.163	-38.12
3139.869	-38.12
3152.533	-41.12
3165.157	-47.12
3177.739	-45.12
3190.28	-47.12
3202.781	-55.12
3215.241	-56.12
3227.661	-57.12
3240.041	-60.12
3252.382	-62.12
3264.682	-57.12
3276.943	-64.12
3289.165	-63.12
3301.348	-70.12
3313.492	-57.12
3325.597	-74.12
3337.663	-77.12
3349.691	-68.12
3361.681	-70.12
3373.633	-71.12
3385.547	-71.12
3397.424	-71.12
3409.263	-73.12
3421.065	-74.12
3432.829	-75.12
3444.557	-70.12
3456.247	-73.12
3467.902	-88.12
3479.519	-80.12
3491.101	-84.12
3502.646	-79.12
3514.155	-84.12
3525.629	-88.12
3537.067	-82.12
3548.469	-85.12
3559.837	-79.12
3571.169	-84.12
3582.466	-84.12
3593.728	-83.12
3604.956	-86.12
3616.149	-91.12
3627.307	-87.12
3638.432	-86.12
3649.523	-87.12
3660.579	-94.12
3671.602	-90.12
3682.591	-92.12
3693.547	-86.12
3704.47	-90.12
3715.359	-93.12
3726.216	-95.12
3737.039	-95.12
3747.83	-87.12
3758.589	-88.12
3769.315	-90.12
3780.008	-99.12
3790.67	-89.12
3801.299	-96.12
3811.897	-88.12
3822.463	-91.12
3832.998	-84.12
3843.501	-90.12
3853.973	-90.12
3864.414	-87.12
3874.823	-49.12
3885.202	64.88
3895.55	-68.12
3905.868	-92.12
3916.155	-91.12
3926.411	-92.12
3936.638	-94.12
3946.834	-91.12
3957	-88.12
3967.137	-91.12
3977.244	-91.12
3987.321	-95.12
3997.369	-95.12
4007.388	-85.12
4017.377	-83.12
4027.338	-90.12
4037.269	-91.12
4047.172	-86.12
4057.046	-93.12
4066.891	-100.12
4076.708	-95.12
4086.497	-97.12
4096.257	-94.12
4105.989	42.88
4115.694	29.88
4125.37	-90.12
4135.019	-92.12
4142.237	-97.12

File: EC 12 2_RamanShift_2.txt
Data from EC 12 2_RamanShift_2.txt Node

Date: Tue Aug 29 12:15:37 IDT 2017
User: aro
Spectrometer: QEPB0276
Trigger mode: 0
Integration Time (sec): 3.000000E1
Scans to average: 1
Electric dark correction enabled: true
Nonlinearity correction enabled: false
Boxcar width: 0
XAxis mode: Raman Shifts
Number of Pixels in Spectrum: 1044
>>>>>Begin Spectral Data<<<<<
160.701	34.12
184.826	483.12
208.845	2175.12
232.758	2363.12
256.565	2529.12
280.267	2725.12
303.865	2870.12
327.359	2988.12
350.751	3090.12
374.04	3336.12
397.228	3419.12
420.315	4889.12
443.302	3465.12
466.189	3179.12
488.978	3074.12
511.668	2434.12
534.261	1853.12
556.756	1692.12
579.155	1656.12
601.459	1610.12
623.667	1541.12
645.781	1931.12
667.8	1457.12
689.726	1353.12
711.56	1335.12
733.301	1322.12
754.951	1498.12
776.509	1419.12
797.977	1511.12
819.355	1441.12
840.644	1377.12
861.844	1265.12
882.955	1192.12
903.979	1132.12
924.916	1147.12
945.766	1122.12
966.529	1103.12
987.208	1052.12
1007.801	1086.12
1028.309	1139.12
1048.734	1153.12
1069.075	1126.12
1089.333	1099.12
1109.509	1075.12
1129.602	1010.12
1149.614	990.12
1169.545	1022.12
1189.395	996.12
1209.165	1008.12
1228.856	1032.12
1248.467	1000.12
1268	922.12
1287.455	889.12
1306.832	919.12
1326.132	897.12
1345.354	834.12
1364.501	817.12
1383.572	822.12
1402.567	792.12
1421.487	757.12
1440.333	774.12
1459.104	767.12
1477.802	733.12
1496.426	728.12
1514.978	777.12
1533.457	752.12
1551.864	733.12
1570.199	699.12
1588.464	685.12
1606.657	653.12
1624.78	620.12
1642.834	624.12
1660.817	656.12
1678.732	636.12
1696.577	618.12
1714.355	614.12
1732.064	595.12
1749.705	528.12
1767.28	503.12
1784.787	483.12
1802.228	512.12
1819.603	491.12
1836.913	461.12
1854.156	446.12
1871.335	457.12
1888.449	465.12
1905.499	435.12
1922.485	457.12
1939.408	472.12
1956.267	460.12
1973.063	405.12
1989.797	377.12
2006.469	373.12
2023.078	359.12
2039.627	335.12
2056.114	337.12
2072.54	352.12
2088.906	355.12
2105.211	340.12
2121.457	324.12
2137.643	314.12
2153.77	306.12
2169.838	293.12
2185.848	279.12
2201.799	268.12
2217.693	268.12
2233.529	253.12
2249.307	243.12
2265.029	229.12
2280.694	227.12
2296.302	215.12
2311.854	200.12
2327.351	216.12
2342.792	194.12
2358.178	189.12
2373.508	190.12
2388.785	193.12
2404.007	182.12
2419.174	181.12
2434.289	177.12
2449.349	153.12
2464.356	153.12
2479.311	141.12
2494.213	144.12
2509.062	150.12
2523.859	133.12
2538.605	144.12
2553.299	140.12
2567.941	131.12
2582.533	137.12
2597.073	126.12
2611.564	116.12
2626.004	113.12
2640.394	106.12
2654.734	93.12
2669.025	82.12
2683.266	82.12
2697.458	76.12
2711.602	59.12
2725.697	50.12
2739.744	53.12
2753.743	55.12
2767.695	70.12
2781.598	51.12
2795.455	46.12
2809.264	35.12
2823.026	48.12
2836.742	44.12
2850.412	40.12
2864.035	29.12
2877.613	30.12
2891.145	23.12
2904.631	17.12
2918.073	12.12
2931.469	11.12
2944.821	9.12
2958.128	4.12
2971.39	0.12
2984.609	1.12
2997.784	-1.88
3010.915	-11.88
3024.002	-12.88
3037.046	-16.88
3050.048	-24.88
3063.006	-30.88
3075.922	-25.88
3088.795	-31.88
3101.627	-32.88
3114.416	-29.88
3127.163	-36.88
3139.869	-36.88
3152.533	-38.88
3165.157	-39.88
3177.739	-42.88
3190.28	-44.88
3202.781	-51.88
3215.241	-55.88
3227.661	-51.88
3240.041	-55.88
3252.382	-58.88
3264.682	-56.88
3276.943	-63.88
3289.165	-58.88
3301.348	-66.88
3313.492	-67.88
3325.597	-72.88
3337.663	-68.88
3349.691	-72.88
3361.681	-70.88
3373.633	-65.88
3385.547	-66.88
3397.424	-68.88
3409.263	-74.88
3421.065	-71.88
3432.829	-74.88
3444.557	-73.88
3456.247	-75.88
3467.902	-78.88
3479.519	-68.88
3491.101	-73.88
3502.646	-74.88
3514.155	-77.88
3525.629	-75.88
3537.067	-79.88
3548.469	-80.88
3559.837	-73.88
3571.169	-79.88
3582.466	-77.88
3593.728	-76.88
3604.956	-83.88
3616.149	-90.88
3627.307	-84.88
3638.432	-83.88
3649.523	-91.88
3660.579	-90.88
3671.602	-83.88
3682.591	-87.88
3693.547	-86.88
3704.47	-86.88
3715.359	-86.88
3726.216	-86.88
3737.039	-88.88
3747.83	-90.88
3758.589	-88.88
3769.315	-87.88
3780.008	-94.88
3790.67	-87.88
3801.299	-86.88
3811.897	-86.88
3822.463	-91.88
3832.998	-91.88
3843.501	-82.88
3853.973	-79.88
3864.414	-79.88
3874.823	-46.88
3885.202	71.12
3895.55	-62.88
3905.868	-84.88
3916.155	-85.88
3926.411	-90.88
3936.638	-91.88
3946.834	-87.88
3957	-87.88
3967.137	-87.88
3977.244	-87.88
3987.321	-85.88
3997.369	-89.88
4007.388	-83.88
4017.377	-85.88
4027.338	-83.88
4037.269	-87.88
4047.172	-83.88
4057.046	-84.88
4066.891	-90.88
4076.708	-84.88
4086.497	-86.88
4096.257	-88.88
4105.989	48.12
4115.694	35.12
4125.37	-88.88
4135.019	-89.88
4142.237	-94.88

File: EC 12 2_RamanShift_3.txt
Data from EC 12 2_RamanShift_3.txt Node

Date: Tue Aug 29 12:16:07 IDT 2017
User: aro
Spectrometer: QEPB0276
Trigger mode: 0
Integration Time (sec): 3.000000E1
Scans to average: 1
Electric dark correction enabled: true
Nonlinearity correction enabled: false
Boxcar width: 0
XAxis mode: Raman Shifts
Number of Pixels in Spectrum: 1044
>>>>>Begin Spectral Data<<<<<
160.701	38.25
184.826	481.25
208.845	2130.25
232.758	2305.25
256.565	2479.25
280.267	2646.25
303.865	2810.25
327.359	2913.25
350.751	3024.25
374.04	3284.25
397.228	3323.25
420.315	4866.25
443.302	3406.25
466.189	3136.25
488.978	3011.25
511.668	2379.25
534.261	1815.25
556.756	1628.25
579.155	1601.25
601.459	1580.25
623.667	1489.25
645.781	1858.25
667.8	1405.25
689.726	1306.25
711.56	1265.25
733.301	1284.25
754.951	1425.25
776.509	1371.25
797.977	1450.25
819.355	1394.25
840.644	1332.25
861.844	1207.25
882.955	1148.25
903.979	1100.25
924.916	1091.25
945.766	1090.25
966.529	1051.25
987.208	1018.25
1007.801	1048.25
1028.309	1078.25
1048.734	1098.25
1069.075	1094.25
1089.333	1068.25
1109.509	1044.25
1129.602	969.25
1149.614	968.25
1169.545	1001.25
1189.395	981.25
1209.165	978.25
1228.856	1009.25
1248.467	955.25
1268	892.25
1287.455	859.25
1306.832	884.25
1326.132	858.25
1345.354	802.25
1364.501	796.25
1383.572	805.25
1402.567	762.25
1421.487	735.25
1440.333	749.25
1459.104	753.25
1477.802	715.25
1496.426	713.25
1514.978	769.25
1533.457	736.25
1551.864	701.25
1570.199	676.25
1588.464	676.25
1606.657	636.25
1624.78	615.25
1642.834	622.25
1660.817	639.25
1678.732	615.25
1696.577	597.25
1714.355	604.25
1732.064	578.25
1749.705	526.25
1767.28	483.25
1784.787	485.25
1802.228	497.25
1819.603	475.25
1836.913	467.25
1854.156	439.25
1871.335	454.25
1888.449	449.25
1905.499	432.25
1922.485	442.25
1939.408	462.25
1956.267	451.25
1973.063	393.25
1989.797	366.25
2006.469	369.25
2023.078	354.25
2039.627	341.25
2056.114	332.25
2072.54	341.25
2088.906	354.25
2105.211	337.25
2121.457	332.25
2137.643	312.25
2153.77	303.25
2169.838	284.25
2185.848	265.25
2201.799	263.25
2217.693	257.25
2233.529	254.25
2249.307	252.25
2265.029	239.25
2280.694	220.25
2296.302	206.25
2311.854	208.25
2327.351	205.25
2342.792	197.25
2358.178	186.25
2373.508	195.25
2388.785	184.25
2404.007	176.25
2419.174	179.25
2434.289	174.25
2449.349	163.25
2464.356	149.25
2479.311	149.25
2494.213	136.25
2509.062	144.25
2523.859	139.25
2538.605	140.25
2553.299	139.25
2567.941	137.25
2582.533	137.25
2597.073	122.25
2611.564	118.25
2626.004	104.25
2640.394	104.25
2654.734	99.25
2669.025	82.25
2683.266	86.25
2697.458	70.25
2711.602	61.25
2725.697	53.25
2739.744	58.25
2753.743	62.25
2767.695	64.25
2781.598	52.25
2795.455	49.25
2809.264	47.25
2823.026	46.25
2836.742	51.25
2850.412	41.25
2864.035	38.25
2877.613	36.25
2891.145	27.25
2904.631	18.25
2918.073	10.25
2931.469	9.25
2944.821	6.25
2958.128	-3.75
2971.39	-3.75
2984.609	-4.75
2997.784	4.25
3010.915	-4.75
3024.002	-17.75
3037.046	-11.75
3050.048	-21.75
3063.006	-25.75
3075.922	-24.75
3088.795	-27.75
3101.627	-24.75
3114.416	-26.75
3127.163	-30.75
3139.869	-29.75
3152.533	-30.75
3165.157	-42.75
3177.739	-37.75
3190.28	-42.75
3202.781	-48.75
3215.241	-50.75
3227.661	-49.75
3240.041	-48.75
3252.382	-49.75
3264.682	-51.75
3276.943	-55.75
3289.165	-57.75
3301.348	-59.75
3313.492	-64.75
3325.597	-71.75
3337.663	-71.75
3349.691	-67.75
3361.681	-64.75
3373.633	-59.75
3385.547	-68.75
3397.424	-61.75
3409.263	-70.75
3421.065	-63.75
3432.829	-64.75
3444.557	-69.75
3456.247	-74.75
3467.902	-73.75
3479.519	-67.75
3491.101	-70.75
3502.646	-76.75
3514.155	-72.75
3525.629	-82.75
3537.067	-78.75
3548.469	-79.75
3559.837	-78.75
3571.169	-79.75
3582.466	-81.75
3593.728	-74.75
3604.956	-79.75
3616.149	-82.75
3627.307	-81.75
3638.432	-75.75
3649.523	-82.75
3660.579	-76.75
3671.602	-80.75
3682.591	-78.75
3693.547	-77.75
3704.47	-87.75
3715.359	-83.75
3726.216	-81.75
3737.039	-85.75
3747.83	-81.75
3758.589	-84.75
3769.315	-87.75
3780.008	-95.75
3790.67	-88.75
3801.299	-85.75
3811.897	-89.75
3822.463	-85.75
3832.998	-80.75
3843.501	-84.75
3853.973	-79.75
3864.414	-76.75
3874.823	-43.75
3885.202	76.25
3895.55	-65.75
3905.868	-87.75
3916.155	-82.75
3926.411	-85.75
3936.638	-90.75
3946.834	-81.75
3957	-88.75
3967.137	-84.75
3977.244	-86.75
3987.321	-82.75
3997.369	-85.75
4007.388	-75.75
4017.377	-77.75
4027.338	-80.75
4037.269	-83.75
4047.172	-85.75
4057.046	-82.75
4066.891	-87.75
4076.708	-87.75
4086.497	-89.75
4096.257	-89.75
4105.989	50.25
4115.694	28.25
4125.37	-90.75
4135.019	-91.75
4142.237	-93.75

File: EC 12 3_RamanShift_1.txt
Data from EC 12 3_RamanShift_1.txt Node

Date: Tue Aug 29 12:37:07 IDT 2017
User: aro
Spectrometer: QEPB0276
Trigger mode: 0
Integration Time (sec): 3.000000E1
Scans to average: 1
Electric dark correction enabled: true
Nonlinearity correction enabled: false
Boxcar width: 0
XAxis mode: Raman Shifts
Number of Pixels in Spectrum: 1044
>>>>>Begin Spectral Data<<<<<
160.701	25.75
184.826	504.75
208.845	2302.75
232.758	2458.75
256.565	2599.75
280.267	2741.75
303.865	2895.75
327.359	3000.75
350.751	3098.75
374.04	3269.75
397.228	3324.75
420.315	4590.75
443.302	3373.75
466.189	3148.75
488.978	3033.75
511.668	2520.75
534.261	2019.75
556.756	1857.75
579.155	1827.75
601.459	1796.75
623.667	1717.75
645.781	2054.75
667.8	1667.75
689.726	1578.75
711.56	1522.75
733.301	1512.75
754.951	1643.75
776.509	1580.75
797.977	1653.75
819.355	1597.75
840.644	1521.75
861.844	1454.75
882.955	1378.75
903.979	1317.75
924.916	1322.75
945.766	1318.75
966.529	1294.75
987.208	1218.75
1007.801	1259.75
1028.309	1302.75
1048.734	1303.75
1069.075	1263.75
1089.333	1272.75
1109.509	1234.75
1129.602	1161.75
1149.614	1155.75
1169.545	1168.75
1189.395	1151.75
1209.165	1134.75
1228.856	1164.75
1248.467	1141.75
1268	1061.75
1287.455	1022.75
1306.832	1053.75
1326.132	1021.75
1345.354	957.75
1364.501	926.75
1383.572	942.75
1402.567	907.75
1421.487	880.75
1440.333	888.75
1459.104	880.75
1477.802	843.75
1496.426	841.75
1514.978	877.75
1533.457	874.75
1551.864	841.75
1570.199	805.75
1588.464	797.75
1606.657	763.75
1624.78	720.75
1642.834	739.75
1660.817	736.75
1678.732	712.75
1696.577	695.75
1714.355	699.75
1732.064	669.75
1749.705	617.75
1767.28	566.75
1784.787	562.75
1802.228	581.75
1819.603	564.75
1836.913	536.75
1854.156	522.75
1871.335	531.75
1888.449	514.75
1905.499	513.75
1922.485	519.75
1939.408	532.75
1956.267	514.75
1973.063	471.75
1989.797	437.75
2006.469	438.75
2023.078	416.75
2039.627	392.75
2056.114	385.75
2072.54	393.75
2088.906	403.75
2105.211	391.75
2121.457	375.75
2137.643	365.75
2153.77	351.75
2169.838	329.75
2185.848	317.75
2201.799	308.75
2217.693	301.75
2233.529	296.75
2249.307	292.75
2265.029	274.75
2280.694	263.75
2296.302	261.75
2311.854	248.75
2327.351	249.75
2342.792	226.75
2358.178	226.75
2373.508	233.75
2388.785	225.75
2404.007	216.75
2419.174	211.75
2434.289	208.75
2449.349	197.75
2464.356	179.75
2479.311	179.75
2494.213	184.75
2509.062	171.75
2523.859	167.75
2538.605	165.75
2553.299	167.75
2567.941	170.75
2582.533	154.75
2597.073	149.75
2611.564	145.75
2626.004	134.75
2640.394	136.75
2654.734	122.75
2669.025	104.75
2683.266	104.75
2697.458	87.75
2711.602	84.75
2725.697	68.75
2739.744	71.75
2753.743	71.75
2767.695	79.75
2781.598	65.75
2795.455	64.75
2809.264	57.75
2823.026	60.75
2836.742	62.75
2850.412	53.75
2864.035	53.75
2877.613	40.75
2891.145	39.75
2904.631	25.75
2918.073	23.75
2931.469	28.75
2944.821	15.75
2958.128	5.75
2971.39	5.75
2984.609	8.75
2997.784	10.75
3010.915	-0.25
3024.002	-7.25
3037.046	-12.25
3050.048	-15.25
3063.006	-22.25
3075.922	-19.25
3088.795	-26.25
3101.627	-21.25
3114.416	-20.25
3127.163	-22.25
3139.869	-29.25
3152.533	-35.25
3165.157	-40.25
3177.739	-35.25
3190.28	-45.25
3202.781	-47.25
3215.241	-52.25
3227.661	-50.25
3240.041	-50.25
3252.382	-49.25
3264.682	-51.25
3276.943	-55.25
3289.165	-50.25
3301.348	-64.25
3313.492	-62.25
3325.597	-68.25
3337.663	-70.25
3349.691	-68.25
3361.681	-65.25
3373.633	-64.25
3385.547	-70.25
3397.424	-65.25
3409.263	-71.25
3421.065	-68.25
3432.829	-70.25
3444.557	-68.25
3456.247	-74.25
3467.902	-78.25
3479.519	-70.25
3491.101	-72.25
3502.646	-78.25
3514.155	-76.25
3525.629	-78.25
3537.067	-75.25
3548.469	-74.25
3559.837	-71.25
3571.169	-78.25
3582.466	-74.25
3593.728	-74.25
3604.956	-78.25
3616.149	-81.25
3627.307	-80.25
3638.432	-82.25
3649.523	-87.25
3660.579	-86.25
3671.602	-84.25
3682.591	-81.25
3693.547	-83.25
3704.47	-90.25
3715.359	-83.25
3726.216	-86.25
3737.039	-88.25
3747.83	-89.25
3758.589	-91.25
3769.315	-87.25
3780.008	-90.25
3790.67	-90.25
3801.299	-82.25
3811.897	-87.25
3822.463	-84.25
3832.998	-82.25
3843.501	-84.25
3853.973	-78.25
3864.414	-87.25
3874.823	-52.25
3885.202	51.75
3895.55	-76.25
3905.868	-82.25
3916.155	-83.25
3926.411	-86.25
3936.638	-90.25
3946.834	-82.25
3957	-86.25
3967.137	-81.25
3977.244	-83.25
3987.321	-81.25
3997.369	-89.25
4007.388	-83.25
4017.377	-84.25
4027.338	-82.25
4037.269	-86.25
4047.172	-84.25
4057.046	-88.25
4066.891	-91.25
4076.708	-86.25
4086.497	-88.25
4096.257	-86.25
4105.989	35.75
4115.694	16.75
4125.37	-87.25
4135.019	-88.25
4142.237	-93.25