Folder: Water/Data/Raman/2017-08-29 - Alluminum 2/Aug 29 2017 - Aluminum 2 (part 2)

File: blank 2_RamanShift_3.txt
Data from blank 2_RamanShift_3.txt Node

Date: Tue Aug 29 12:24:37 IDT 2017
User: aro
Spectrometer: QEPB0276
Trigger mode: 0
Integration Time (sec): 3.000000E1
Scans to average: 1
Electric dark correction enabled: true
Nonlinearity correction enabled: false
Boxcar width: 0
XAxis mode: Raman Shifts
Number of Pixels in Spectrum: 1044
>>>>>Begin Spectral Data<<<<<
160.701	45.88
184.826	465.88
208.845	2101.88
232.758	2236.88
256.565	2413.88
280.267	2629.88
303.865	2801.88
327.359	2959.88
350.751	3101.88
374.04	3500.88
397.228	3552.88
420.315	5899.88
443.302	3668.88
466.189	3256.88
488.978	3136.88
511.668	2308.88
534.261	1495.88
556.756	1264.88
579.155	1243.88
601.459	1189.88
623.667	1117.88
645.781	1745.88
667.8	1035.88
689.726	913.88
711.56	864.88
733.301	889.88
754.951	1139.88
776.509	1018.88
797.977	1137.88
819.355	1080.88
840.644	977.88
861.844	819.88
882.955	731.88
903.979	701.88
924.916	683.88
945.766	674.88
966.529	652.88
987.208	634.88
1007.801	657.88
1028.309	682.88
1048.734	744.88
1069.075	737.88
1089.333	717.88
1109.509	661.88
1129.602	603.88
1149.614	608.88
1169.545	647.88
1189.395	641.88
1209.165	645.88
1228.856	650.88
1248.467	607.88
1268	553.88
1287.455	532.88
1306.832	551.88
1326.132	549.88
1345.354	519.88
1364.501	524.88
1383.572	510.88
1402.567	469.88
1421.487	464.88
1440.333	473.88
1459.104	481.88
1477.802	481.88
1496.426	484.88
1514.978	528.88
1533.457	479.88
1551.864	460.88
1570.199	436.88
1588.464	441.88
1606.657	420.88
1624.78	402.88
1642.834	416.88
1660.817	431.88
1678.732	423.88
1696.577	414.88
1714.355	404.88
1732.064	374.88
1749.705	338.88
1767.28	322.88
1784.787	323.88
1802.228	332.88
1819.603	304.88
1836.913	292.88
1854.156	285.88
1871.335	281.88
1888.449	286.88
1905.499	290.88
1922.485	296.88
1939.408	289.88
1956.267	279.88
1973.063	246.88
1989.797	222.88
2006.469	222.88
2023.078	214.88
2039.627	213.88
2056.114	213.88
2072.54	218.88
2088.906	228.88
2105.211	219.88
2121.457	198.88
2137.643	178.88
2153.77	182.88
2169.838	165.88
2185.848	155.88
2201.799	146.88
2217.693	140.88
2233.529	148.88
2249.307	137.88
2265.029	127.88
2280.694	115.88
2296.302	110.88
2311.854	96.88
2327.351	114.88
2342.792	88.88
2358.178	90.88
2373.508	99.88
2388.785	88.88
2404.007	82.88
2419.174	82.88
2434.289	78.88
2449.349	69.88
2464.356	55.88
2479.311	62.88
2494.213	59.88
2509.062	63.88
2523.859	52.88
2538.605	52.88
2553.299	49.88
2567.941	48.88
2582.533	50.88
2597.073	45.88
2611.564	39.88
2626.004	32.88
2640.394	32.88
2654.734	28.88
2669.025	15.88
2683.266	18.88
2697.458	13.88
2711.602	4.88
2725.697	0.88
2739.744	6.88
2753.743	0.88
2767.695	0.88
2781.598	-2.12
2795.455	2.88
2809.264	-7.12
2823.026	1.88
2836.742	1.88
2850.412	-8.12
2864.035	-12.12
2877.613	-17.12
2891.145	-16.12
2904.631	-24.12
2918.073	-29.12
2931.469	-31.12
2944.821	-29.12
2958.128	-33.12
2971.39	-33.12
2984.609	-41.12
2997.784	-39.12
3010.915	-43.12
3024.002	-46.12
3037.046	-52.12
3050.048	-49.12
3063.006	-56.12
3075.922	-55.12
3088.795	-61.12
3101.627	-53.12
3114.416	-54.12
3127.163	-60.12
3139.869	-53.12
3152.533	-58.12
3165.157	-61.12
3177.739	-56.12
3190.28	-68.12
3202.781	-72.12
3215.241	-71.12
3227.661	-70.12
3240.041	-66.12
3252.382	-70.12
3264.682	-67.12
3276.943	-72.12
3289.165	-68.12
3301.348	-72.12
3313.492	-82.12
3325.597	-83.12
3337.663	-88.12
3349.691	-84.12
3361.681	-83.12
3373.633	-77.12
3385.547	-79.12
3397.424	-78.12
3409.263	-82.12
3421.065	-80.12
3432.829	-81.12
3444.557	-83.12
3456.247	-83.12
3467.902	-87.12
3479.519	-75.12
3491.101	-80.12
3502.646	-83.12
3514.155	-80.12
3525.629	-89.12
3537.067	-89.12
3548.469	-93.12
3559.837	-79.12
3571.169	-91.12
3582.466	-81.12
3593.728	-86.12
3604.956	-86.12
3616.149	-94.12
3627.307	-91.12
3638.432	-90.12
3649.523	-88.12
3660.579	-90.12
3671.602	-88.12
3682.591	-87.12
3693.547	-85.12
3704.47	-87.12
3715.359	-92.12
3726.216	-95.12
3737.039	-95.12
3747.83	-97.12
3758.589	-93.12
3769.315	-95.12
3780.008	-99.12
3790.67	-92.12
3801.299	-93.12
3811.897	-92.12
3822.463	-91.12
3832.998	-91.12
3843.501	-90.12
3853.973	-84.12
3864.414	-90.12
3874.823	-45.12
3885.202	100.88
3895.55	-65.12
3905.868	-94.12
3916.155	-87.12
3926.411	-93.12
3936.638	-97.12
3946.834	-94.12
3957	-95.12
3967.137	-92.12
3977.244	-90.12
3987.321	-94.12
3997.369	-96.12
4007.388	-84.12
4017.377	-84.12
4027.338	-89.12
4037.269	-90.12
4047.172	-91.12
4057.046	-90.12
4066.891	-95.12
4076.708	-91.12
4086.497	-94.12
4096.257	-94.12
4105.989	58.88
4115.694	36.88
4125.37	-89.12
4135.019	-97.12
4142.237	-100.12

File: blank 3_RamanShift_1.txt
Data from blank 3_RamanShift_1.txt Node

Date: Tue Aug 29 12:46:37 IDT 2017
User: aro
Spectrometer: QEPB0276
Trigger mode: 0
Integration Time (sec): 3.000000E1
Scans to average: 1
Electric dark correction enabled: true
Nonlinearity correction enabled: false
Boxcar width: 0
XAxis mode: Raman Shifts
Number of Pixels in Spectrum: 1044
>>>>>Begin Spectral Data<<<<<
160.701	27.38
184.826	433.38
208.845	1889.38
232.758	2040.38
256.565	2185.38
280.267	2342.38
303.865	2503.38
327.359	2629.38
350.751	2743.38
374.04	2992.38
397.228	3039.38
420.315	4547.38
443.302	3132.38
466.189	2840.38
488.978	2728.38
511.668	2117.38
534.261	1524.38
556.756	1358.38
579.155	1321.38
601.459	1294.38
623.667	1222.38
645.781	1616.38
667.8	1153.38
689.726	1072.38
711.56	1053.38
733.301	1062.38
754.951	1213.38
776.509	1158.38
797.977	1259.38
819.355	1197.38
840.644	1128.38
861.844	1016.38
882.955	952.38
903.979	939.38
924.916	926.38
945.766	921.38
966.529	900.38
987.208	880.38
1007.801	911.38
1028.309	940.38
1048.734	956.38
1069.075	953.38
1089.333	944.38
1109.509	903.38
1129.602	844.38
1149.614	866.38
1169.545	888.38
1189.395	870.38
1209.165	874.38
1228.856	897.38
1248.467	868.38
1268	805.38
1287.455	780.38
1306.832	801.38
1326.132	780.38
1345.354	731.38
1364.501	733.38
1383.572	738.38
1402.567	708.38
1421.487	680.38
1440.333	688.38
1459.104	691.38
1477.802	665.38
1496.426	677.38
1514.978	721.38
1533.457	702.38
1551.864	708.38
1570.199	667.38
1588.464	649.38
1606.657	619.38
1624.78	595.38
1642.834	602.38
1660.817	614.38
1678.732	603.38
1696.577	592.38
1714.355	608.38
1732.064	586.38
1749.705	527.38
1767.28	483.38
1784.787	465.38
1802.228	513.38
1819.603	504.38
1836.913	469.38
1854.156	457.38
1871.335	466.38
1888.449	448.38
1905.499	439.38
1922.485	458.38
1939.408	469.38
1956.267	465.38
1973.063	436.38
1989.797	397.38
2006.469	387.38
2023.078	386.38
2039.627	351.38
2056.114	350.38
2072.54	371.38
2088.906	378.38
2105.211	355.38
2121.457	355.38
2137.643	340.38
2153.77	330.38
2169.838	320.38
2185.848	305.38
2201.799	292.38
2217.693	293.38
2233.529	299.38
2249.307	283.38
2265.029	280.38
2280.694	257.38
2296.302	247.38
2311.854	255.38
2327.351	265.38
2342.792	236.38
2358.178	228.38
2373.508	227.38
2388.785	235.38
2404.007	228.38
2419.174	216.38
2434.289	215.38
2449.349	198.38
2464.356	192.38
2479.311	196.38
2494.213	187.38
2509.062	183.38
2523.859	181.38
2538.605	176.38
2553.299	175.38
2567.941	180.38
2582.533	174.38
2597.073	166.38
2611.564	172.38
2626.004	157.38
2640.394	149.38
2654.734	139.38
2669.025	118.38
2683.266	117.38
2697.458	106.38
2711.602	97.38
2725.697	85.38
2739.744	91.38
2753.743	87.38
2767.695	91.38
2781.598	85.38
2795.455	82.38
2809.264	75.38
2823.026	76.38
2836.742	75.38
2850.412	65.38
2864.035	70.38
2877.613	63.38
2891.145	54.38
2904.631	44.38
2918.073	32.38
2931.469	33.38
2944.821	25.38
2958.128	22.38
2971.39	19.38
2984.609	12.38
2997.784	17.38
3010.915	14.38
3024.002	9.38
3037.046	4.38
3050.048	0.38
3063.006	-11.62
3075.922	-4.62
3088.795	-8.62
3101.627	-8.62
3114.416	-5.62
3127.163	-11.62
3139.869	-7.62
3152.533	-18.62
3165.157	-15.62
3177.739	-20.62
3190.28	-27.62
3202.781	-32.62
3215.241	-32.62
3227.661	-39.62
3240.041	-38.62
3252.382	-40.62
3264.682	-40.62
3276.943	-43.62
3289.165	-46.62
3301.348	-47.62
3313.492	-52.62
3325.597	-57.62
3337.663	-61.62
3349.691	-57.62
3361.681	-53.62
3373.633	-53.62
3385.547	-52.62
3397.424	-53.62
3409.263	-59.62
3421.065	-59.62
3432.829	-56.62
3444.557	-59.62
3456.247	-57.62
3467.902	-61.62
3479.519	-57.62
3491.101	-65.62
3502.646	-62.62
3514.155	-64.62
3525.629	-69.62
3537.067	-66.62
3548.469	-68.62
3559.837	-67.62
3571.169	-70.62
3582.466	-67.62
3593.728	-67.62
3604.956	-69.62
3616.149	-76.62
3627.307	-80.62
3638.432	-77.62
3649.523	-80.62
3660.579	-77.62
3671.602	-71.62
3682.591	-75.62
3693.547	-71.62
3704.47	-77.62
3715.359	-75.62
3726.216	-78.62
3737.039	-80.62
3747.83	-79.62
3758.589	-78.62
3769.315	-76.62
3780.008	-88.62
3790.67	-75.62
3801.299	-80.62
3811.897	-79.62
3822.463	-79.62
3832.998	-76.62
3843.501	-78.62
3853.973	-75.62
3864.414	-73.62
3874.823	-43.62
3885.202	41.38
3895.55	-64.62
3905.868	-76.62
3916.155	-78.62
3926.411	-82.62
3936.638	-81.62
3946.834	-74.62
3957	-80.62
3967.137	-79.62
3977.244	-82.62
3987.321	-77.62
3997.369	-84.62
4007.388	-73.62
4017.377	-72.62
4027.338	-73.62
4037.269	-79.62
4047.172	-81.62
4057.046	-76.62
4066.891	-77.62
4076.708	-79.62
4086.497	-75.62
4096.257	-83.62
4105.989	42.38
4115.694	26.38
4125.37	-77.62
4135.019	-80.62
4142.237	-83.62

File: blank 3_RamanShift_2.txt
Data from blank 3_RamanShift_2.txt Node

Date: Tue Aug 29 12:47:07 IDT 2017
User: aro
Spectrometer: QEPB0276
Trigger mode: 0
Integration Time (sec): 3.000000E1
Scans to average: 1
Electric dark correction enabled: true
Nonlinearity correction enabled: false
Boxcar width: 0
XAxis mode: Raman Shifts
Number of Pixels in Spectrum: 1044
>>>>>Begin Spectral Data<<<<<
160.701	35.88
184.826	441.88
208.845	1859.88
232.758	1996.88
256.565	2172.88
280.267	2322.88
303.865	2477.88
327.359	2609.88
350.751	2729.88
374.04	2971.88
397.228	3003.88
420.315	4548.88
443.302	3099.88
466.189	2812.88
488.978	2703.88
511.668	2072.88
534.261	1493.88
556.756	1328.88
579.155	1305.88
601.459	1278.88
623.667	1219.88
645.781	1619.88
667.8	1141.88
689.726	1055.88
711.56	1021.88
733.301	1049.88
754.951	1215.88
776.509	1148.88
797.977	1228.88
819.355	1201.88
840.644	1137.88
861.844	1014.88
882.955	954.88
903.979	914.88
924.916	909.88
945.766	904.88
966.529	894.88
987.208	864.88
1007.801	891.88
1028.309	921.88
1048.734	945.88
1069.075	943.88
1089.333	940.88
1109.509	911.88
1129.602	837.88
1149.614	832.88
1169.545	868.88
1189.395	852.88
1209.165	848.88
1228.856	878.88
1248.467	844.88
1268	779.88
1287.455	760.88
1306.832	789.88
1326.132	761.88
1345.354	722.88
1364.501	717.88
1383.572	725.88
1402.567	692.88
1421.487	665.88
1440.333	672.88
1459.104	671.88
1477.802	644.88
1496.426	666.88
1514.978	718.88
1533.457	712.88
1551.864	679.88
1570.199	647.88
1588.464	628.88
1606.657	616.88
1624.78	591.88
1642.834	587.88
1660.817	603.88
1678.732	576.88
1696.577	573.88
1714.355	595.88
1732.064	575.88
1749.705	522.88
1767.28	488.88
1784.787	475.88
1802.228	506.88
1819.603	498.88
1836.913	472.88
1854.156	439.88
1871.335	457.88
1888.449	437.88
1905.499	427.88
1922.485	446.88
1939.408	469.88
1956.267	466.88
1973.063	427.88
1989.797	394.88
2006.469	391.88
2023.078	374.88
2039.627	349.88
2056.114	345.88
2072.54	352.88
2088.906	366.88
2105.211	363.88
2121.457	358.88
2137.643	337.88
2153.77	329.88
2169.838	316.88
2185.848	303.88
2201.799	290.88
2217.693	295.88
2233.529	288.88
2249.307	278.88
2265.029	270.88
2280.694	259.88
2296.302	249.88
2311.854	246.88
2327.351	258.88
2342.792	232.88
2358.178	221.88
2373.508	227.88
2388.785	227.88
2404.007	213.88
2419.174	211.88
2434.289	208.88
2449.349	198.88
2464.356	184.88
2479.311	179.88
2494.213	182.88
2509.062	189.88
2523.859	172.88
2538.605	169.88
2553.299	175.88
2567.941	181.88
2582.533	168.88
2597.073	167.88
2611.564	159.88
2626.004	147.88
2640.394	145.88
2654.734	133.88
2669.025	117.88
2683.266	117.88
2697.458	99.88
2711.602	89.88
2725.697	79.88
2739.744	80.88
2753.743	79.88
2767.695	92.88
2781.598	79.88
2795.455	77.88
2809.264	70.88
2823.026	72.88
2836.742	78.88
2850.412	62.88
2864.035	62.88
2877.613	51.88
2891.145	48.88
2904.631	43.88
2918.073	29.88
2931.469	32.88
2944.821	30.88
2958.128	18.88
2971.39	13.88
2984.609	16.88
2997.784	16.88
3010.915	10.88
3024.002	4.88
3037.046	5.88
3050.048	-3.12
3063.006	-8.12
3075.922	-9.12
3088.795	-17.12
3101.627	-9.12
3114.416	-4.12
3127.163	-13.12
3139.869	-9.12
3152.533	-18.12
3165.157	-21.12
3177.739	-24.12
3190.28	-31.12
3202.781	-34.12
3215.241	-40.12
3227.661	-46.12
3240.041	-43.12
3252.382	-47.12
3264.682	-41.12
3276.943	-40.12
3289.165	-46.12
3301.348	-49.12
3313.492	-52.12
3325.597	-57.12
3337.663	-61.12
3349.691	-61.12
3361.681	-59.12
3373.633	-59.12
3385.547	-61.12
3397.424	-57.12
3409.263	-61.12
3421.065	-60.12
3432.829	-59.12
3444.557	-60.12
3456.247	-67.12
3467.902	-74.12
3479.519	-65.12
3491.101	-62.12
3502.646	-63.12
3514.155	-67.12
3525.629	-66.12
3537.067	-71.12
3548.469	-73.12
3559.837	-68.12
3571.169	-75.12
3582.466	-68.12
3593.728	-69.12
3604.956	-72.12
3616.149	-82.12
3627.307	-79.12
3638.432	-81.12
3649.523	-83.12
3660.579	-82.12
3671.602	-79.12
3682.591	-79.12
3693.547	-75.12
3704.47	-78.12
3715.359	-75.12
3726.216	-81.12
3737.039	-80.12
3747.83	-80.12
3758.589	-80.12
3769.315	-80.12
3780.008	-84.12
3790.67	-81.12
3801.299	-79.12
3811.897	-80.12
3822.463	-78.12
3832.998	-73.12
3843.501	-79.12
3853.973	-73.12
3864.414	-80.12
3874.823	-44.12
3885.202	47.88
3895.55	-66.12
3905.868	-81.12
3916.155	-83.12
3926.411	-81.12
3936.638	-87.12
3946.834	-80.12
3957	-83.12
3967.137	-73.12
3977.244	-83.12
3987.321	-80.12
3997.369	-82.12
4007.388	-78.12
4017.377	-80.12
4027.338	-77.12
4037.269	-82.12
4047.172	-76.12
4057.046	-77.12
4066.891	-84.12
4076.708	-80.12
4086.497	-83.12
4096.257	-81.12
4105.989	40.88
4115.694	21.88
4125.37	-86.12
4135.019	-85.12
4142.237	-84.12

File: blank 3_RamanShift_3.txt
Data from blank 3_RamanShift_3.txt Node

Date: Tue Aug 29 12:48:07 IDT 2017
User: aro
Spectrometer: QEPB0276
Trigger mode: 0
Integration Time (sec): 3.000000E1
Scans to average: 1
Electric dark correction enabled: true
Nonlinearity correction enabled: false
Boxcar width: 0
XAxis mode: Raman Shifts
Number of Pixels in Spectrum: 1044
>>>>>Begin Spectral Data<<<<<
160.701	26.5
184.826	434.5
208.845	1863.5
232.758	1984.5
256.565	2155.5
280.267	2304.5
303.865	2497.5
327.359	2581.5
350.751	2687.5
374.04	2927.5
397.228	2992.5
420.315	4490.5
443.302	3067.5
466.189	2772.5
488.978	2693.5
511.668	2074.5
534.261	1488.5
556.756	1327.5
579.155	1292.5
601.459	1269.5
623.667	1228.5
645.781	1599.5
667.8	1139.5
689.726	1048.5
711.56	1014.5
733.301	1034.5
754.951	1206.5
776.509	1141.5
797.977	1231.5
819.355	1193.5
840.644	1123.5
861.844	1004.5
882.955	929.5
903.979	926.5
924.916	889.5
945.766	902.5
966.529	893.5
987.208	861.5
1007.801	882.5
1028.309	904.5
1048.734	938.5
1069.075	929.5
1089.333	919.5
1109.509	899.5
1129.602	900.5
1149.614	826.5
1169.545	869.5
1189.395	858.5
1209.165	851.5
1228.856	872.5
1248.467	861.5
1268	783.5
1287.455	757.5
1306.832	782.5
1326.132	763.5
1345.354	710.5
1364.501	714.5
1383.572	729.5
1402.567	705.5
1421.487	668.5
1440.333	682.5
1459.104	680.5
1477.802	639.5
1496.426	659.5
1514.978	711.5
1533.457	705.5
1551.864	698.5
1570.199	660.5
1588.464	631.5
1606.657	609.5
1624.78	599.5
1642.834	598.5
1660.817	607.5
1678.732	579.5
1696.577	572.5
1714.355	599.5
1732.064	575.5
1749.705	526.5
1767.28	470.5
1784.787	477.5
1802.228	504.5
1819.603	492.5
1836.913	465.5
1854.156	457.5
1871.335	448.5
1888.449	436.5
1905.499	429.5
1922.485	449.5
1939.408	479.5
1956.267	454.5
1973.063	427.5
1989.797	394.5
2006.469	390.5
2023.078	380.5
2039.627	356.5
2056.114	344.5
2072.54	357.5
2088.906	366.5
2105.211	365.5
2121.457	345.5
2137.643	340.5
2153.77	328.5
2169.838	317.5
2185.848	298.5
2201.799	296.5
2217.693	287.5
2233.529	294.5
2249.307	289.5
2265.029	274.5
2280.694	258.5
2296.302	253.5
2311.854	236.5
2327.351	269.5
2342.792	237.5
2358.178	227.5
2373.508	237.5
2388.785	225.5
2404.007	225.5
2419.174	215.5
2434.289	217.5
2449.349	192.5
2464.356	189.5
2479.311	191.5
2494.213	189.5
2509.062	184.5
2523.859	184.5
2538.605	184.5
2553.299	182.5
2567.941	176.5
2582.533	167.5
2597.073	158.5
2611.564	161.5
2626.004	150.5
2640.394	139.5
2654.734	134.5
2669.025	117.5
2683.266	116.5
2697.458	105.5
2711.602	89.5
2725.697	84.5
2739.744	81.5
2753.743	85.5
2767.695	89.5
2781.598	76.5
2795.455	86.5
2809.264	68.5
2823.026	77.5
2836.742	77.5
2850.412	71.5
2864.035	71.5
2877.613	61.5
2891.145	54.5
2904.631	51.5
2918.073	42.5
2931.469	36.5
2944.821	33.5
2958.128	25.5
2971.39	19.5
2984.609	14.5
2997.784	22.5
3010.915	20.5
3024.002	12.5
3037.046	9.5
3050.048	4.5
3063.006	-8.5
3075.922	-5.5
3088.795	-9.5
3101.627	-7.5
3114.416	-8.5
3127.163	-8.5
3139.869	-15.5
3152.533	-15.5
3165.157	-21.5
3177.739	-20.5
3190.28	-25.5
3202.781	-29.5
3215.241	-37.5
3227.661	-39.5
3240.041	-37.5
3252.382	-34.5
3264.682	-39.5
3276.943	-40.5
3289.165	-38.5
3301.348	-44.5
3313.492	-47.5
3325.597	-50.5
3337.663	-57.5
3349.691	-51.5
3361.681	-50.5
3373.633	-47.5
3385.547	-50.5
3397.424	-44.5
3409.263	-55.5
3421.065	-51.5
3432.829	-56.5
3444.557	-51.5
3456.247	-58.5
3467.902	-58.5
3479.519	-50.5
3491.101	-60.5
3502.646	-62.5
3514.155	-59.5
3525.629	-73.5
3537.067	-66.5
3548.469	-64.5
3559.837	-66.5
3571.169	-67.5
3582.466	-60.5
3593.728	-66.5
3604.956	-69.5
3616.149	-74.5
3627.307	-72.5
3638.432	-67.5
3649.523	-73.5
3660.579	-68.5
3671.602	-72.5
3682.591	-70.5
3693.547	-65.5
3704.47	-74.5
3715.359	-71.5
3726.216	-77.5
3737.039	-75.5
3747.83	-73.5
3758.589	-71.5
3769.315	-70.5
3780.008	-80.5
3790.67	-75.5
3801.299	-74.5
3811.897	-75.5
3822.463	-78.5
3832.998	-73.5
3843.501	-70.5
3853.973	-73.5
3864.414	-75.5
3874.823	-38.5
3885.202	48.5
3895.55	-59.5
3905.868	-71.5
3916.155	-74.5
3926.411	-76.5
3936.638	-77.5
3946.834	-75.5
3957	-74.5
3967.137	-74.5
3977.244	-71.5
3987.321	-72.5
3997.369	-71.5
4007.388	-71.5
4017.377	-69.5
4027.338	-69.5
4037.269	-74.5
4047.172	-75.5
4057.046	-72.5
4066.891	-76.5
4076.708	-78.5
4086.497	-81.5
4096.257	-77.5
4105.989	49.5
4115.694	28.5
4125.37	-80.5
4135.019	-79.5
4142.237	-82.5

File: EC 11 1_RamanShift_1.txt
Data from EC 11 1_RamanShift_1.txt Node

Date: Tue Aug 29 12:20:07 IDT 2017
User: aro
Spectrometer: QEPB0276
Trigger mode: 0
Integration Time (sec): 3.000000E1
Scans to average: 1
Electric dark correction enabled: true
Nonlinearity correction enabled: false
Boxcar width: 0
XAxis mode: Raman Shifts
Number of Pixels in Spectrum: 1044
>>>>>Begin Spectral Data<<<<<
160.701	3.75
184.826	1467.75
208.845	6981.75
232.758	7728.75
256.565	8297.75
280.267	8672.75
303.865	9002.75
327.359	9092.75
350.751	9139.75
374.04	9232.75
397.228	9253.75
420.315	10366.75
443.302	9283.75
466.189	9006.75
488.978	8859.75
511.668	8335.75
534.261	7835.75
556.756	7627.75
579.155	7543.75
601.459	7422.75
623.667	7208.75
645.781	7356.75
667.8	7036.75
689.726	6880.75
711.56	6708.75
733.301	6642.75
754.951	6666.75
776.509	6599.75
797.977	6591.75
819.355	6406.75
840.644	6347.75
861.844	6285.75
882.955	6135.75
903.979	5919.75
924.916	5846.75
945.766	5874.75
966.529	5691.75
987.208	5484.75
1007.801	5570.75
1028.309	5671.75
1048.734	5498.75
1069.075	5292.75
1089.333	5349.75
1109.509	5294.75
1129.602	5038.75
1149.614	4984.75
1169.545	5008.75
1189.395	4880.75
1209.165	4814.75
1228.856	4861.75
1248.467	4798.75
1268	4507.75
1287.455	4399.75
1306.832	4393.75
1326.132	4272.75
1345.354	3913.75
1364.501	3839.75
1383.572	4018.75
1402.567	3808.75
1421.487	3645.75
1440.333	3677.75
1459.104	3600.75
1477.802	3370.75
1496.426	3332.75
1514.978	3491.75
1533.457	3531.75
1551.864	3351.75
1570.199	3250.75
1588.464	3188.75
1606.657	3036.75
1624.78	2833.75
1642.834	2845.75
1660.817	2853.75
1678.732	2731.75
1696.577	2550.75
1714.355	2697.75
1732.064	2629.75
1749.705	2419.75
1767.28	2167.75
1784.787	2106.75
1802.228	2213.75
1819.603	2185.75
1836.913	2062.75
1854.156	2006.75
1871.335	1990.75
1888.449	1952.75
1905.499	1885.75
1922.485	1918.75
1939.408	1991.75
1956.267	1946.75
1973.063	1781.75
1989.797	1680.75
2006.469	1609.75
2023.078	1559.75
2039.627	1472.75
2056.114	1407.75
2072.54	1419.75
2088.906	1464.75
2105.211	1426.75
2121.457	1376.75
2137.643	1332.75
2153.77	1289.75
2169.838	1213.75
2185.848	1162.75
2201.799	1126.75
2217.693	1119.75
2233.529	1099.75
2249.307	1052.75
2265.029	995.75
2280.694	957.75
2296.302	925.75
2311.854	880.75
2327.351	861.75
2342.792	821.75
2358.178	830.75
2373.508	831.75
2388.785	838.75
2404.007	809.75
2419.174	779.75
2434.289	757.75
2449.349	737.75
2464.356	685.75
2479.311	664.75
2494.213	665.75
2509.062	643.75
2523.859	616.75
2538.605	616.75
2553.299	624.75
2567.941	606.75
2582.533	574.75
2597.073	559.75
2611.564	528.75
2626.004	507.75
2640.394	467.75
2654.734	435.75
2669.025	402.75
2683.266	378.75
2697.458	336.75
2711.602	310.75
2725.697	270.75
2739.744	268.75
2753.743	268.75
2767.695	280.75
2781.598	251.75
2795.455	260.75
2809.264	233.75
2823.026	231.75
2836.742	227.75
2850.412	203.75
2864.035	206.75
2877.613	191.75
2891.145	167.75
2904.631	154.75
2918.073	133.75
2931.469	108.75
2944.821	93.75
2958.128	72.75
2971.39	65.75
2984.609	55.75
2997.784	59.75
3010.915	47.75
3024.002	33.75
3037.046	14.75
3050.048	1.75
3063.006	-7.25
3075.922	-7.25
3088.795	-13.25
3101.627	-15.25
3114.416	-20.25
3127.163	-27.25
3139.869	-32.25
3152.533	-42.25
3165.157	-58.25
3177.739	-63.25
3190.28	-77.25
3202.781	-83.25
3215.241	-93.25
3227.661	-95.25
3240.041	-97.25
3252.382	-109.25
3264.682	-106.25
3276.943	-111.25
3289.165	-116.25
3301.348	-121.25
3313.492	-126.25
3325.597	-133.25
3337.663	-140.25
3349.691	-137.25
3361.681	-137.25
3373.633	-135.25
3385.547	-142.25
3397.424	-142.25
3409.263	-148.25
3421.065	-150.25
3432.829	-152.25
3444.557	-152.25
3456.247	-160.25
3467.902	-164.25
3479.519	-161.25
3491.101	-162.25
3502.646	-165.25
3514.155	-165.25
3525.629	-176.25
3537.067	-173.25
3548.469	-169.25
3559.837	-167.25
3571.169	-176.25
3582.466	-175.25
3593.728	-174.25
3604.956	-179.25
3616.149	-187.25
3627.307	-185.25
3638.432	-181.25
3649.523	-185.25
3660.579	-185.25
3671.602	-182.25
3682.591	-184.25
3693.547	-180.25
3704.47	-187.25
3715.359	-181.25
3726.216	-186.25
3737.039	-184.25
3747.83	-190.25
3758.589	-188.25
3769.315	-182.25
3780.008	-191.25
3790.67	-188.25
3801.299	-187.25
3811.897	-189.25
3822.463	-191.25
3832.998	-190.25
3843.501	-189.25
3853.973	-183.25
3864.414	-191.25
3874.823	-158.25
3885.202	-74.25
3895.55	-174.25
3905.868	-194.25
3916.155	-189.25
3926.411	-193.25
3936.638	-192.25
3946.834	-190.25
3957	-191.25
3967.137	-186.25
3977.244	-182.25
3987.321	-184.25
3997.369	-188.25
4007.388	-184.25
4017.377	-184.25
4027.338	-183.25
4037.269	-183.25
4047.172	-184.25
4057.046	-188.25
4066.891	-191.25
4076.708	-189.25
4086.497	-188.25
4096.257	-197.25
4105.989	-38.25
4115.694	-23.25
4125.37	-188.25
4135.019	-194.25
4142.237	-200.25