Folder: Water/Data/Raman/2017-08-29 - Alluminum 2/Aug 29 2017 - Aluminum 2 (part 9)

File: EC 110 1_RamanShift_3.txt
Data from EC 110 1_RamanShift_3.txt Node

Date: Tue Aug 29 12:09:07 IDT 2017
User: aro
Spectrometer: QEPB0276
Trigger mode: 0
Integration Time (sec): 3.000000E1
Scans to average: 1
Electric dark correction enabled: true
Nonlinearity correction enabled: false
Boxcar width: 0
XAxis mode: Raman Shifts
Number of Pixels in Spectrum: 1044
>>>>>Begin Spectral Data<<<<<
160.701	39.12
184.826	477.12
208.845	2098.12
232.758	2232.12
256.565	2416.12
280.267	2596.12
303.865	2808.12
327.359	2944.12
350.751	3092.12
374.04	3412.12
397.228	3497.12
420.315	5576.12
443.302	3638.12
466.189	3224.12
488.978	3083.12
511.668	2292.12
534.261	1536.12
556.756	1325.12
579.155	1287.12
601.459	1265.12
623.667	1175.12
645.781	1693.12
667.8	1106.12
689.726	961.12
711.56	933.12
733.301	954.12
754.951	1147.12
776.509	1081.12
797.977	1192.12
819.355	1142.12
840.644	1043.12
861.844	893.12
882.955	805.12
903.979	770.12
924.916	746.12
945.766	749.12
966.529	732.12
987.208	708.12
1007.801	727.12
1028.309	764.12
1048.734	801.12
1069.075	802.12
1089.333	788.12
1109.509	734.12
1129.602	679.12
1149.614	687.12
1169.545	718.12
1189.395	707.12
1209.165	713.12
1228.856	714.12
1248.467	686.12
1268	626.12
1287.455	602.12
1306.832	618.12
1326.132	609.12
1345.354	579.12
1364.501	580.12
1383.572	574.12
1402.567	533.12
1421.487	516.12
1440.333	532.12
1459.104	546.12
1477.802	525.12
1496.426	522.12
1514.978	558.12
1533.457	546.12
1551.864	512.12
1570.199	491.12
1588.464	479.12
1606.657	475.12
1624.78	456.12
1642.834	466.12
1660.817	473.12
1678.732	463.12
1696.577	461.12
1714.355	452.12
1732.064	417.12
1749.705	371.12
1767.28	358.12
1784.787	362.12
1802.228	369.12
1819.603	354.12
1836.913	325.12
1854.156	329.12
1871.335	329.12
1888.449	330.12
1905.499	324.12
1922.485	341.12
1939.408	341.12
1956.267	322.12
1973.063	290.12
1989.797	274.12
2006.469	267.12
2023.078	262.12
2039.627	247.12
2056.114	240.12
2072.54	246.12
2088.906	255.12
2105.211	247.12
2121.457	231.12
2137.643	216.12
2153.77	210.12
2169.838	198.12
2185.848	188.12
2201.799	185.12
2217.693	182.12
2233.529	185.12
2249.307	176.12
2265.029	164.12
2280.694	151.12
2296.302	144.12
2311.854	140.12
2327.351	150.12
2342.792	132.12
2358.178	125.12
2373.508	126.12
2388.785	122.12
2404.007	120.12
2419.174	113.12
2434.289	110.12
2449.349	113.12
2464.356	97.12
2479.311	93.12
2494.213	94.12
2509.062	87.12
2523.859	82.12
2538.605	80.12
2553.299	82.12
2567.941	82.12
2582.533	78.12
2597.073	67.12
2611.564	64.12
2626.004	54.12
2640.394	53.12
2654.734	48.12
2669.025	40.12
2683.266	47.12
2697.458	33.12
2711.602	26.12
2725.697	20.12
2739.744	23.12
2753.743	26.12
2767.695	27.12
2781.598	16.12
2795.455	18.12
2809.264	5.12
2823.026	19.12
2836.742	18.12
2850.412	7.12
2864.035	13.12
2877.613	2.12
2891.145	-1.88
2904.631	-7.88
2918.073	-20.88
2931.469	-15.88
2944.821	-19.88
2958.128	-17.88
2971.39	-23.88
2984.609	-34.88
2997.784	-16.88
3010.915	-27.88
3024.002	-34.88
3037.046	-32.88
3050.048	-40.88
3063.006	-45.88
3075.922	-41.88
3088.795	-46.88
3101.627	-49.88
3114.416	-40.88
3127.163	-47.88
3139.869	-48.88
3152.533	-50.88
3165.157	-48.88
3177.739	-54.88
3190.28	-57.88
3202.781	-60.88
3215.241	-60.88
3227.661	-59.88
3240.041	-62.88
3252.382	-64.88
3264.682	-66.88
3276.943	-69.88
3289.165	-65.88
3301.348	-73.88
3313.492	-74.88
3325.597	-76.88
3337.663	-74.88
3349.691	-71.88
3361.681	-77.88
3373.633	-76.88
3385.547	-75.88
3397.424	-69.88
3409.263	-74.88
3421.065	-76.88
3432.829	-76.88
3444.557	-78.88
3456.247	-84.88
3467.902	-89.88
3479.519	-79.88
3491.101	-83.88
3502.646	-81.88
3514.155	-80.88
3525.629	-86.88
3537.067	-82.88
3548.469	-85.88
3559.837	-80.88
3571.169	-81.88
3582.466	-82.88
3593.728	-82.88
3604.956	-80.88
3616.149	-92.88
3627.307	-91.88
3638.432	-84.88
3649.523	-85.88
3660.579	-90.88
3671.602	-88.88
3682.591	-89.88
3693.547	-85.88
3704.47	-95.88
3715.359	-92.88
3726.216	-93.88
3737.039	-92.88
3747.83	-94.88
3758.589	-93.88
3769.315	-91.88
3780.008	-101.88
3790.67	-88.88
3801.299	-90.88
3811.897	-95.88
3822.463	-90.88
3832.998	-92.88
3843.501	-91.88
3853.973	-87.88
3864.414	-89.88
3874.823	-37.88
3885.202	96.12
3895.55	-70.88
3905.868	-90.88
3916.155	-89.88
3926.411	-89.88
3936.638	-97.88
3946.834	-90.88
3957	-89.88
3967.137	-89.88
3977.244	-91.88
3987.321	-91.88
3997.369	-100.88
4007.388	-87.88
4017.377	-86.88
4027.338	-90.88
4037.269	-91.88
4047.172	-90.88
4057.046	-84.88
4066.891	-91.88
4076.708	-87.88
4086.497	-91.88
4096.257	-90.88
4105.989	59.12
4115.694	41.12
4125.37	-92.88
4135.019	-96.88
4142.237	-96.88

File: EC 110 2_RamanShift_1.txt
Data from EC 110 2_RamanShift_1.txt Node

Date: Tue Aug 29 12:10:07 IDT 2017
User: aro
Spectrometer: QEPB0276
Trigger mode: 0
Integration Time (sec): 3.000000E1
Scans to average: 1
Electric dark correction enabled: true
Nonlinearity correction enabled: false
Boxcar width: 0
XAxis mode: Raman Shifts
Number of Pixels in Spectrum: 1044
>>>>>Begin Spectral Data<<<<<
160.701	36.38
184.826	659.38
208.845	3008.38
232.758	3265.38
256.565	3489.38
280.267	3685.38
303.865	3902.38
327.359	4010.38
350.751	4109.38
374.04	4342.38
397.228	4403.38
420.315	6022.38
443.302	4452.38
466.189	4163.38
488.978	4045.38
511.668	3389.38
534.261	2779.38
556.756	2584.38
579.155	2541.38
601.459	2512.38
623.667	2413.38
645.781	2820.38
667.8	2312.38
689.726	2216.38
711.56	2148.38
733.301	2147.38
754.951	2291.38
776.509	2191.38
797.977	2294.38
819.355	2199.38
840.644	2123.38
861.844	2005.38
882.955	1924.38
903.979	1861.38
924.916	1862.38
945.766	1844.38
966.529	1799.38
987.208	1734.38
1007.801	1773.38
1028.309	1829.38
1048.734	1800.38
1069.075	1751.38
1089.333	1752.38
1109.509	1722.38
1129.602	1599.38
1149.614	1608.38
1169.545	1632.38
1189.395	1598.38
1209.165	1596.38
1228.856	1627.38
1248.467	1577.38
1268	1476.38
1287.455	1421.38
1306.832	1441.38
1326.132	1409.38
1345.354	1320.38
1364.501	1284.38
1383.572	1317.38
1402.567	1234.38
1421.487	1205.38
1440.333	1228.38
1459.104	1223.38
1477.802	1146.38
1496.426	1142.38
1514.978	1169.38
1533.457	1156.38
1551.864	1129.38
1570.199	1088.38
1588.464	1062.38
1606.657	1023.38
1624.78	974.38
1642.834	983.38
1660.817	987.38
1678.732	941.38
1696.577	907.38
1714.355	921.38
1732.064	900.38
1749.705	826.38
1767.28	759.38
1784.787	731.38
1802.228	758.38
1819.603	725.38
1836.913	696.38
1854.156	685.38
1871.335	698.38
1888.449	678.38
1905.499	653.38
1922.485	673.38
1939.408	681.38
1956.267	666.38
1973.063	614.38
1989.797	567.38
2006.469	558.38
2023.078	540.38
2039.627	495.38
2056.114	498.38
2072.54	499.38
2088.906	517.38
2105.211	495.38
2121.457	475.38
2137.643	458.38
2153.77	447.38
2169.838	418.38
2185.848	391.38
2201.799	393.38
2217.693	388.38
2233.529	386.38
2249.307	374.38
2265.029	357.38
2280.694	327.38
2296.302	319.38
2311.854	311.38
2327.351	309.38
2342.792	300.38
2358.178	286.38
2373.508	283.38
2388.785	279.38
2404.007	271.38
2419.174	275.38
2434.289	261.38
2449.349	252.38
2464.356	227.38
2479.311	227.38
2494.213	219.38
2509.062	208.38
2523.859	204.38
2538.605	213.38
2553.299	198.38
2567.941	206.38
2582.533	198.38
2597.073	188.38
2611.564	179.38
2626.004	161.38
2640.394	164.38
2654.734	141.38
2669.025	127.38
2683.266	126.38
2697.458	107.38
2711.602	93.38
2725.697	77.38
2739.744	83.38
2753.743	79.38
2767.695	84.38
2781.598	69.38
2795.455	75.38
2809.264	58.38
2823.026	73.38
2836.742	67.38
2850.412	52.38
2864.035	62.38
2877.613	49.38
2891.145	45.38
2904.631	29.38
2918.073	18.38
2931.469	16.38
2944.821	7.38
2958.128	3.38
2971.39	-0.62
2984.609	-7.62
2997.784	-6.62
3010.915	-6.62
3024.002	-19.62
3037.046	-17.62
3050.048	-32.62
3063.006	-32.62
3075.922	-27.62
3088.795	-32.62
3101.627	-31.62
3114.416	-33.62
3127.163	-38.62
3139.869	-36.62
3152.533	-49.62
3165.157	-49.62
3177.739	-56.62
3190.28	-54.62
3202.781	-63.62
3215.241	-66.62
3227.661	-68.62
3240.041	-69.62
3252.382	-70.62
3264.682	-72.62
3276.943	-72.62
3289.165	-72.62
3301.348	-78.62
3313.492	-77.62
3325.597	-84.62
3337.663	-84.62
3349.691	-84.62
3361.681	-86.62
3373.633	-81.62
3385.547	-85.62
3397.424	-86.62
3409.263	-92.62
3421.065	-90.62
3432.829	-88.62
3444.557	-88.62
3456.247	-94.62
3467.902	-94.62
3479.519	-92.62
3491.101	-94.62
3502.646	-94.62
3514.155	-96.62
3525.629	-103.62
3537.067	-101.62
3548.469	-105.62
3559.837	-101.62
3571.169	-103.62
3582.466	-98.62
3593.728	-97.62
3604.956	-101.62
3616.149	-111.62
3627.307	-105.62
3638.432	-104.62
3649.523	-103.62
3660.579	-107.62
3671.602	-103.62
3682.591	-103.62
3693.547	-104.62
3704.47	-113.62
3715.359	-111.62
3726.216	-112.62
3737.039	-109.62
3747.83	-112.62
3758.589	-104.62
3769.315	-109.62
3780.008	-117.62
3790.67	-107.62
3801.299	-110.62
3811.897	-107.62
3822.463	-106.62
3832.998	-104.62
3843.501	-105.62
3853.973	-108.62
3864.414	-106.62
3874.823	-68.62
3885.202	80.38
3895.55	-89.62
3905.868	-108.62
3916.155	-108.62
3926.411	-107.62
3936.638	-112.62
3946.834	-108.62
3957	-105.62
3967.137	-107.62
3977.244	-107.62
3987.321	-103.62
3997.369	-108.62
4007.388	-106.62
4017.377	-104.62
4027.338	-102.62
4037.269	-109.62
4047.172	-104.62
4057.046	-102.62
4066.891	-111.62
4076.708	-110.62
4086.497	-108.62
4096.257	-113.62
4105.989	36.38
4115.694	20.38
4125.37	-107.62
4135.019	-112.62
4142.237	-116.62

File: EC 110 2_RamanShift_2.txt
Data from EC 110 2_RamanShift_2.txt Node

Date: Tue Aug 29 12:10:37 IDT 2017
User: aro
Spectrometer: QEPB0276
Trigger mode: 0
Integration Time (sec): 3.000000E1
Scans to average: 1
Electric dark correction enabled: true
Nonlinearity correction enabled: false
Boxcar width: 0
XAxis mode: Raman Shifts
Number of Pixels in Spectrum: 1044
>>>>>Begin Spectral Data<<<<<
160.701	32.75
184.826	601.75
208.845	2721.75
232.758	2908.75
256.565	3117.75
280.267	3289.75
303.865	3497.75
327.359	3601.75
350.751	3698.75
374.04	3959.75
397.228	4029.75
420.315	5572.75
443.302	4111.75
466.189	3803.75
488.978	3661.75
511.668	3013.75
534.261	2434.75
556.756	2256.75
579.155	2216.75
601.459	2178.75
623.667	2070.75
645.781	2497.75
667.8	1983.75
689.726	1889.75
711.56	1839.75
733.301	1837.75
754.951	1982.75
776.509	1931.75
797.977	2021.75
819.355	1924.75
840.644	1852.75
861.844	1751.75
882.955	1667.75
903.979	1630.75
924.916	1575.75
945.766	1592.75
966.529	1542.75
987.208	1495.75
1007.801	1540.75
1028.309	1568.75
1048.734	1556.75
1069.075	1540.75
1089.333	1541.75
1109.509	1489.75
1129.602	1418.75
1149.614	1402.75
1169.545	1408.75
1189.395	1404.75
1209.165	1402.75
1228.856	1430.75
1248.467	1386.75
1268	1279.75
1287.455	1244.75
1306.832	1265.75
1326.132	1256.75
1345.354	1173.75
1364.501	1155.75
1383.572	1153.75
1402.567	1102.75
1421.487	1064.75
1440.333	1083.75
1459.104	1081.75
1477.802	1022.75
1496.426	1025.75
1514.978	1059.75
1533.457	1044.75
1551.864	997.75
1570.199	977.75
1588.464	956.75
1606.657	912.75
1624.78	874.75
1642.834	883.75
1660.817	886.75
1678.732	868.75
1696.577	837.75
1714.355	825.75
1732.064	795.75
1749.705	747.75
1767.28	689.75
1784.787	653.75
1802.228	690.75
1819.603	652.75
1836.913	643.75
1854.156	627.75
1871.335	626.75
1888.449	630.75
1905.499	587.75
1922.485	610.75
1939.408	625.75
1956.267	620.75
1973.063	548.75
1989.797	522.75
2006.469	520.75
2023.078	490.75
2039.627	469.75
2056.114	467.75
2072.54	459.75
2088.906	467.75
2105.211	465.75
2121.457	439.75
2137.643	431.75
2153.77	404.75
2169.838	395.75
2185.848	365.75
2201.799	367.75
2217.693	354.75
2233.529	359.75
2249.307	336.75
2265.029	320.75
2280.694	308.75
2296.302	288.75
2311.854	287.75
2327.351	290.75
2342.792	258.75
2358.178	263.75
2373.508	268.75
2388.785	264.75
2404.007	260.75
2419.174	257.75
2434.289	249.75
2449.349	228.75
2464.356	216.75
2479.311	213.75
2494.213	213.75
2509.062	200.75
2523.859	198.75
2538.605	194.75
2553.299	188.75
2567.941	183.75
2582.533	179.75
2597.073	163.75
2611.564	159.75
2626.004	151.75
2640.394	152.75
2654.734	134.75
2669.025	122.75
2683.266	116.75
2697.458	103.75
2711.602	85.75
2725.697	81.75
2739.744	80.75
2753.743	70.75
2767.695	86.75
2781.598	65.75
2795.455	72.75
2809.264	67.75
2823.026	68.75
2836.742	65.75
2850.412	64.75
2864.035	61.75
2877.613	49.75
2891.145	37.75
2904.631	35.75
2918.073	16.75
2931.469	19.75
2944.821	10.75
2958.128	13.75
2971.39	6.75
2984.609	-3.25
2997.784	2.75
3010.915	-6.25
3024.002	-13.25
3037.046	-13.25
3050.048	-25.25
3063.006	-29.25
3075.922	-30.25
3088.795	-31.25
3101.627	-25.25
3114.416	-36.25
3127.163	-33.25
3139.869	-35.25
3152.533	-34.25
3165.157	-42.25
3177.739	-46.25
3190.28	-53.25
3202.781	-58.25
3215.241	-54.25
3227.661	-60.25
3240.041	-62.25
3252.382	-65.25
3264.682	-67.25
3276.943	-69.25
3289.165	-68.25
3301.348	-74.25
3313.492	-77.25
3325.597	-79.25
3337.663	-84.25
3349.691	-77.25
3361.681	-81.25
3373.633	-76.25
3385.547	-84.25
3397.424	-77.25
3409.263	-78.25
3421.065	-82.25
3432.829	-80.25
3444.557	-79.25
3456.247	-86.25
3467.902	-88.25
3479.519	-79.25
3491.101	-85.25
3502.646	-88.25
3514.155	-86.25
3525.629	-94.25
3537.067	-93.25
3548.469	-92.25
3559.837	-89.25
3571.169	-89.25
3582.466	-92.25
3593.728	-93.25
3604.956	-89.25
3616.149	-101.25
3627.307	-97.25
3638.432	-98.25
3649.523	-97.25
3660.579	-98.25
3671.602	-97.25
3682.591	-97.25
3693.547	-97.25
3704.47	-106.25
3715.359	-102.25
3726.216	-103.25
3737.039	-105.25
3747.83	-99.25
3758.589	-103.25
3769.315	-101.25
3780.008	-112.25
3790.67	-97.25
3801.299	-103.25
3811.897	-97.25
3822.463	-104.25
3832.998	-98.25
3843.501	-102.25
3853.973	-93.25
3864.414	-96.25
3874.823	-57.25
3885.202	77.75
3895.55	-84.25
3905.868	-99.25
3916.155	-103.25
3926.411	-107.25
3936.638	-106.25
3946.834	-103.25
3957	-98.25
3967.137	-93.25
3977.244	-103.25
3987.321	-99.25
3997.369	-98.25
4007.388	-96.25
4017.377	-96.25
4027.338	-99.25
4037.269	-103.25
4047.172	-98.25
4057.046	-100.25
4066.891	-103.25
4076.708	-98.25
4086.497	-101.25
4096.257	-103.25
4105.989	40.75
4115.694	23.75
4125.37	-101.25
4135.019	-101.25
4142.237	-106.25

File: EC 110 2_RamanShift_3.txt
Data from EC 110 2_RamanShift_3.txt Node

Date: Tue Aug 29 12:11:07 IDT 2017
User: aro
Spectrometer: QEPB0276
Trigger mode: 0
Integration Time (sec): 3.000000E1
Scans to average: 1
Electric dark correction enabled: true
Nonlinearity correction enabled: false
Boxcar width: 0
XAxis mode: Raman Shifts
Number of Pixels in Spectrum: 1044
>>>>>Begin Spectral Data<<<<<
160.701	38.88
184.826	571.88
208.845	2571.88
232.758	2791.88
256.565	2973.88
280.267	3160.88
303.865	3372.88
327.359	3462.88
350.751	3575.88
374.04	3833.88
397.228	3865.88
420.315	5454.88
443.302	3942.88
466.189	3673.88
488.978	3545.88
511.668	2887.88
534.261	2282.88
556.756	2122.88
579.155	2097.88
601.459	2018.88
623.667	1964.88
645.781	2365.88
667.8	1873.88
689.726	1772.88
711.56	1712.88
733.301	1714.88
754.951	1878.88
776.509	1815.88
797.977	1912.88
819.355	1806.88
840.644	1755.88
861.844	1643.88
882.955	1553.88
903.979	1495.88
924.916	1495.88
945.766	1494.88
966.529	1469.88
987.208	1408.88
1007.801	1432.88
1028.309	1482.88
1048.734	1460.88
1069.075	1458.88
1089.333	1451.88
1109.509	1399.88
1129.602	1319.88
1149.614	1311.88
1169.545	1367.88
1189.395	1331.88
1209.165	1317.88
1228.856	1346.88
1248.467	1309.88
1268	1209.88
1287.455	1186.88
1306.832	1214.88
1326.132	1176.88
1345.354	1106.88
1364.501	1095.88
1383.572	1078.88
1402.567	1041.88
1421.487	1019.88
1440.333	1023.88
1459.104	1024.88
1477.802	974.88
1496.426	970.88
1514.978	1021.88
1533.457	995.88
1551.864	961.88
1570.199	916.88
1588.464	920.88
1606.657	881.88
1624.78	825.88
1642.834	840.88
1660.817	838.88
1678.732	817.88
1696.577	796.88
1714.355	797.88
1732.064	772.88
1749.705	718.88
1767.28	666.88
1784.787	637.88
1802.228	665.88
1819.603	639.88
1836.913	618.88
1854.156	597.88
1871.335	607.88
1888.449	597.88
1905.499	577.88
1922.485	590.88
1939.408	601.88
1956.267	582.88
1973.063	532.88
1989.797	491.88
2006.469	491.88
2023.078	481.88
2039.627	455.88
2056.114	430.88
2072.54	449.88
2088.906	468.88
2105.211	446.88
2121.457	431.88
2137.643	413.88
2153.77	389.88
2169.838	373.88
2185.848	354.88
2201.799	340.88
2217.693	342.88
2233.529	348.88
2249.307	324.88
2265.029	312.88
2280.694	294.88
2296.302	286.88
2311.854	277.88
2327.351	276.88
2342.792	255.88
2358.178	255.88
2373.508	260.88
2388.785	254.88
2404.007	243.88
2419.174	237.88
2434.289	237.88
2449.349	223.88
2464.356	205.88
2479.311	209.88
2494.213	200.88
2509.062	191.88
2523.859	179.88
2538.605	196.88
2553.299	175.88
2567.941	184.88
2582.533	175.88
2597.073	163.88
2611.564	157.88
2626.004	144.88
2640.394	135.88
2654.734	127.88
2669.025	117.88
2683.266	116.88
2697.458	100.88
2711.602	87.88
2725.697	72.88
2739.744	79.88
2753.743	87.88
2767.695	81.88
2781.598	67.88
2795.455	64.88
2809.264	61.88
2823.026	59.88
2836.742	62.88
2850.412	57.88
2864.035	52.88
2877.613	42.88
2891.145	36.88
2904.631	28.88
2918.073	10.88
2931.469	14.88
2944.821	11.88
2958.128	7.88
2971.39	-1.12
2984.609	-2.12
2997.784	1.88
3010.915	-5.12
3024.002	-12.12
3037.046	-17.12
3050.048	-26.12
3063.006	-27.12
3075.922	-23.12
3088.795	-30.12
3101.627	-27.12
3114.416	-29.12
3127.163	-38.12
3139.869	-35.12
3152.533	-45.12
3165.157	-49.12
3177.739	-50.12
3190.28	-52.12
3202.781	-55.12
3215.241	-66.12
3227.661	-64.12
3240.041	-63.12
3252.382	-63.12
3264.682	-64.12
3276.943	-65.12
3289.165	-69.12
3301.348	-70.12
3313.492	-75.12
3325.597	-82.12
3337.663	-79.12
3349.691	-81.12
3361.681	-79.12
3373.633	-76.12
3385.547	-81.12
3397.424	-77.12
3409.263	-78.12
3421.065	-84.12
3432.829	-79.12
3444.557	-80.12
3456.247	-91.12
3467.902	-90.12
3479.519	-79.12
3491.101	-91.12
3502.646	-86.12
3514.155	-88.12
3525.629	-90.12
3537.067	-95.12
3548.469	-94.12
3559.837	-86.12
3571.169	-95.12
3582.466	-90.12
3593.728	-90.12
3604.956	-91.12
3616.149	-100.12
3627.307	-99.12
3638.432	-99.12
3649.523	-103.12
3660.579	-101.12
3671.602	-101.12
3682.591	-101.12
3693.547	-98.12
3704.47	-101.12
3715.359	-104.12
3726.216	-101.12
3737.039	-105.12
3747.83	-101.12
3758.589	-99.12
3769.315	-100.12
3780.008	-108.12
3790.67	-98.12
3801.299	-100.12
3811.897	-103.12
3822.463	-103.12
3832.998	-101.12
3843.501	-97.12
3853.973	-105.12
3864.414	-105.12
3874.823	-60.12
3885.202	69.88
3895.55	-83.12
3905.868	-100.12
3916.155	-101.12
3926.411	-101.12
3936.638	-103.12
3946.834	-102.12
3957	-98.12
3967.137	-100.12
3977.244	-107.12
3987.321	-100.12
3997.369	-101.12
4007.388	-98.12
4017.377	-100.12
4027.338	-98.12
4037.269	-105.12
4047.172	-102.12
4057.046	-98.12
4066.891	-104.12
4076.708	-105.12
4086.497	-103.12
4096.257	-102.12
4105.989	43.88
4115.694	28.88
4125.37	-101.12
4135.019	-104.12
4142.237	-108.12

File: EC 110 3_RamanShift_1.txt
Data from EC 110 3_RamanShift_1.txt Node

Date: Tue Aug 29 12:33:07 IDT 2017
User: aro
Spectrometer: QEPB0276
Trigger mode: 0
Integration Time (sec): 3.000000E1
Scans to average: 1
Electric dark correction enabled: true
Nonlinearity correction enabled: false
Boxcar width: 0
XAxis mode: Raman Shifts
Number of Pixels in Spectrum: 1044
>>>>>Begin Spectral Data<<<<<
160.701	25.62
184.826	478.62
208.845	2068.62
232.758	2195.62
256.565	2330.62
280.267	2454.62
303.865	2615.62
327.359	2750.62
350.751	2797.62
374.04	3075.62
397.228	3124.62
420.315	4712.62
443.302	3199.62
466.189	2935.62
488.978	2806.62
511.668	2192.62
534.261	1628.62
556.756	1473.62
579.155	1445.62
601.459	1415.62
623.667	1348.62
645.781	1765.62
667.8	1267.62
689.726	1190.62
711.56	1166.62
733.301	1156.62
754.951	1313.62
776.509	1262.62
797.977	1347.62
819.355	1276.62
840.644	1205.62
861.844	1094.62
882.955	1052.62
903.979	1000.62
924.916	986.62
945.766	992.62
966.529	959.62
987.208	914.62
1007.801	958.62
1028.309	992.62
1048.734	1005.62
1069.075	998.62
1089.333	980.62
1109.509	937.62
1129.602	888.62
1149.614	896.62
1169.545	916.62
1189.395	891.62
1209.165	908.62
1228.856	934.62
1248.467	900.62
1268	836.62
1287.455	799.62
1306.832	827.62
1326.132	815.62
1345.354	775.62
1364.501	756.62
1383.572	747.62
1402.567	736.62
1421.487	697.62
1440.333	718.62
1459.104	731.62
1477.802	693.62
1496.426	715.62
1514.978	741.62
1533.457	734.62
1551.864	692.62
1570.199	663.62
1588.464	646.62
1606.657	623.62
1624.78	611.62
1642.834	612.62
1660.817	639.62
1678.732	620.62
1696.577	609.62
1714.355	607.62
1732.064	574.62
1749.705	537.62
1767.28	495.62
1784.787	491.62
1802.228	505.62
1819.603	495.62
1836.913	460.62
1854.156	454.62
1871.335	452.62
1888.449	467.62
1905.499	454.62
1922.485	460.62
1939.408	485.62
1956.267	461.62
1973.063	421.62
1989.797	382.62
2006.469	370.62
2023.078	362.62
2039.627	351.62
2056.114	346.62
2072.54	357.62
2088.906	369.62
2105.211	356.62
2121.457	337.62
2137.643	323.62
2153.77	315.62
2169.838	297.62
2185.848	288.62
2201.799	273.62
2217.693	275.62
2233.529	275.62
2249.307	263.62
2265.029	248.62
2280.694	238.62
2296.302	230.62
2311.854	212.62
2327.351	217.62
2342.792	206.62
2358.178	201.62
2373.508	203.62
2388.785	199.62
2404.007	194.62
2419.174	192.62
2434.289	182.62
2449.349	170.62
2464.356	160.62
2479.311	164.62
2494.213	167.62
2509.062	160.62
2523.859	160.62
2538.605	157.62
2553.299	155.62
2567.941	152.62
2582.533	149.62
2597.073	139.62
2611.564	140.62
2626.004	121.62
2640.394	121.62
2654.734	113.62
2669.025	98.62
2683.266	92.62
2697.458	81.62
2711.602	76.62
2725.697	65.62
2739.744	72.62
2753.743	66.62
2767.695	458.62
2781.598	61.62
2795.455	61.62
2809.264	51.62
2823.026	55.62
2836.742	56.62
2850.412	46.62
2864.035	41.62
2877.613	39.62
2891.145	42.62
2904.631	22.62
2918.073	23.62
2931.469	20.62
2944.821	12.62
2958.128	9.62
2971.39	9.62
2984.609	2.62
2997.784	7.62
3010.915	5.62
3024.002	-2.38
3037.046	-10.38
3050.048	-16.38
3063.006	-25.38
3075.922	-21.38
3088.795	-21.38
3101.627	-27.38
3114.416	-21.38
3127.163	-22.38
3139.869	-25.38
3152.533	-25.38
3165.157	-32.38
3177.739	-36.38
3190.28	-39.38
3202.781	-44.38
3215.241	-43.38
3227.661	-49.38
3240.041	-43.38
3252.382	-48.38
3264.682	-48.38
3276.943	-52.38
3289.165	-50.38
3301.348	-53.38
3313.492	-59.38
3325.597	-62.38
3337.663	-67.38
3349.691	-63.38
3361.681	-56.38
3373.633	-57.38
3385.547	-63.38
3397.424	-60.38
3409.263	-66.38
3421.065	-62.38
3432.829	-58.38
3444.557	-61.38
3456.247	-71.38
3467.902	-71.38
3479.519	-64.38
3491.101	-65.38
3502.646	-66.38
3514.155	-66.38
3525.629	-74.38
3537.067	-73.38
3548.469	-70.38
3559.837	-68.38
3571.169	-75.38
3582.466	-74.38
3593.728	-74.38
3604.956	-74.38
3616.149	-86.38
3627.307	-80.38
3638.432	-78.38
3649.523	-83.38
3660.579	-83.38
3671.602	-75.38
3682.591	-76.38
3693.547	-77.38
3704.47	-78.38
3715.359	-82.38
3726.216	-89.38
3737.039	-83.38
3747.83	-84.38
3758.589	-75.38
3769.315	-82.38
3780.008	-85.38
3790.67	-80.38
3801.299	-83.38
3811.897	-84.38
3822.463	-78.38
3832.998	-75.38
3843.501	-77.38
3853.973	-80.38
3864.414	-79.38
3874.823	-50.38
3885.202	51.62
3895.55	-65.38
3905.868	-82.38
3916.155	-84.38
3926.411	-82.38
3936.638	-88.38
3946.834	-83.38
3957	-82.38
3967.137	-78.38
3977.244	-86.38
3987.321	-82.38
3997.369	-83.38
4007.388	-80.38
4017.377	-78.38
4027.338	-79.38
4037.269	-83.38
4047.172	-79.38
4057.046	-78.38
4066.891	-77.38
4076.708	-80.38
4086.497	-81.38
4096.257	-81.38
4105.989	39.62
4115.694	31.62
4125.37	-79.38
4135.019	-86.38
4142.237	-87.38