Folder: Water/Data/Raman/2017-08-29 - Alluminum 2/Aug 29 2017 - Aluminum 2 (part 4)

File: EC 11 3_RamanShift_1.txt
Data from EC 11 3_RamanShift_1.txt Node

Date: Tue Aug 29 12:41:07 IDT 2017
User: aro
Spectrometer: QEPB0276
Trigger mode: 0
Integration Time (sec): 3.000000E1
Scans to average: 1
Electric dark correction enabled: true
Nonlinearity correction enabled: false
Boxcar width: 0
XAxis mode: Raman Shifts
Number of Pixels in Spectrum: 1044
>>>>>Begin Spectral Data<<<<<
160.701	17.5
184.826	1116.5
208.845	5266.5
232.758	5874.5
256.565	6342.5
280.267	6607.5
303.865	6884.5
327.359	7038.5
350.751	7133.5
374.04	7269.5
397.228	7292.5
420.315	8520.5
443.302	7359.5
466.189	7158.5
488.978	6992.5
511.668	6467.5
534.261	5940.5
556.756	5765.5
579.155	5689.5
601.459	5577.5
623.667	5455.5
645.781	5692.5
667.8	5318.5
689.726	5182.5
711.56	5081.5
733.301	5017.5
754.951	5084.5
776.509	5040.5
797.977	5063.5
819.355	4905.5
840.644	4825.5
861.844	4783.5
882.955	4654.5
903.979	4528.5
924.916	4515.5
945.766	4471.5
966.529	4345.5
987.208	4220.5
1007.801	4290.5
1028.309	4339.5
1048.734	4266.5
1069.075	4128.5
1089.333	4158.5
1109.509	4114.5
1129.602	3909.5
1149.614	3867.5
1169.545	3859.5
1189.395	3781.5
1209.165	3747.5
1228.856	3804.5
1248.467	3743.5
1268	3501.5
1287.455	3409.5
1306.832	3448.5
1326.132	3325.5
1345.354	3051.5
1364.501	2958.5
1383.572	3114.5
1402.567	3003.5
1421.487	2860.5
1440.333	2868.5
1459.104	2801.5
1477.802	2620.5
1496.426	2572.5
1514.978	2746.5
1533.457	2747.5
1551.864	2632.5
1570.199	2543.5
1588.464	2486.5
1606.657	2357.5
1624.78	2232.5
1642.834	2211.5
1660.817	2237.5
1678.732	2125.5
1696.577	1977.5
1714.355	2114.5
1732.064	2083.5
1749.705	1899.5
1767.28	1712.5
1784.787	1634.5
1802.228	1756.5
1819.603	1731.5
1836.913	1611.5
1854.156	1585.5
1871.335	1583.5
1888.449	1558.5
1905.499	1475.5
1922.485	1511.5
1939.408	1574.5
1956.267	1547.5
1973.063	1419.5
1989.797	1339.5
2006.469	1302.5
2023.078	1233.5
2039.627	1173.5
2056.114	1142.5
2072.54	1141.5
2088.906	1171.5
2105.211	1135.5
2121.457	1120.5
2137.643	1066.5
2153.77	1051.5
2169.838	1007.5
2185.848	939.5
2201.799	916.5
2217.693	897.5
2233.529	904.5
2249.307	849.5
2265.029	821.5
2280.694	790.5
2296.302	758.5
2311.854	729.5
2327.351	717.5
2342.792	698.5
2358.178	681.5
2373.508	688.5
2388.785	682.5
2404.007	666.5
2419.174	660.5
2434.289	628.5
2449.349	620.5
2464.356	563.5
2479.311	557.5
2494.213	545.5
2509.062	537.5
2523.859	533.5
2538.605	521.5
2553.299	518.5
2567.941	507.5
2582.533	490.5
2597.073	470.5
2611.564	454.5
2626.004	430.5
2640.394	397.5
2654.734	375.5
2669.025	350.5
2683.266	327.5
2697.458	289.5
2711.602	266.5
2725.697	247.5
2739.744	236.5
2753.743	234.5
2767.695	246.5
2781.598	241.5
2795.455	212.5
2809.264	212.5
2823.026	210.5
2836.742	205.5
2850.412	193.5
2864.035	182.5
2877.613	166.5
2891.145	154.5
2904.631	135.5
2918.073	120.5
2931.469	107.5
2944.821	95.5
2958.128	74.5
2971.39	68.5
2984.609	62.5
2997.784	63.5
3010.915	52.5
3024.002	41.5
3037.046	18.5
3050.048	20.5
3063.006	6.5
3075.922	4.5
3088.795	1.5
3101.627	2.5
3114.416	-5.5
3127.163	-17.5
3139.869	-6.5
3152.533	-22.5
3165.157	-33.5
3177.739	-38.5
3190.28	-48.5
3202.781	-56.5
3215.241	-60.5
3227.661	-66.5
3240.041	-76.5
3252.382	-73.5
3264.682	-72.5
3276.943	-79.5
3289.165	-85.5
3301.348	-90.5
3313.492	-96.5
3325.597	-104.5
3337.663	-102.5
3349.691	-99.5
3361.681	-102.5
3373.633	-103.5
3385.547	-111.5
3397.424	-107.5
3409.263	-113.5
3421.065	-114.5
3432.829	-113.5
3444.557	-109.5
3456.247	-122.5
3467.902	-124.5
3479.519	-118.5
3491.101	-122.5
3502.646	-124.5
3514.155	-123.5
3525.629	-134.5
3537.067	-129.5
3548.469	-133.5
3559.837	-132.5
3571.169	-138.5
3582.466	-140.5
3593.728	-131.5
3604.956	-139.5
3616.149	-149.5
3627.307	-144.5
3638.432	-141.5
3649.523	-142.5
3660.579	-146.5
3671.602	-140.5
3682.591	-142.5
3693.547	-143.5
3704.47	-152.5
3715.359	-142.5
3726.216	-153.5
3737.039	-147.5
3747.83	-148.5
3758.589	-150.5
3769.315	-146.5
3780.008	-154.5
3790.67	-150.5
3801.299	-145.5
3811.897	-148.5
3822.463	-147.5
3832.998	-147.5
3843.501	-142.5
3853.973	-145.5
3864.414	-146.5
3874.823	-119.5
3885.202	-42.5
3895.55	-138.5
3905.868	-148.5
3916.155	-147.5
3926.411	-148.5
3936.638	-155.5
3946.834	-149.5
3957	-149.5
3967.137	-147.5
3977.244	-152.5
3987.321	-143.5
3997.369	-145.5
4007.388	-139.5
4017.377	-145.5
4027.338	-144.5
4037.269	-151.5
4047.172	-147.5
4057.046	-150.5
4066.891	-150.5
4076.708	-147.5
4086.497	-147.5
4096.257	-153.5
4105.989	-16.5
4115.694	-7.5
4125.37	-141.5
4135.019	-153.5
4142.237	-159.5

File: EC 11 3_RamanShift_2.txt
Data from EC 11 3_RamanShift_2.txt Node

Date: Tue Aug 29 12:41:37 IDT 2017
User: aro
Spectrometer: QEPB0276
Trigger mode: 0
Integration Time (sec): 3.000000E1
Scans to average: 1
Electric dark correction enabled: true
Nonlinearity correction enabled: false
Boxcar width: 0
XAxis mode: Raman Shifts
Number of Pixels in Spectrum: 1044
>>>>>Begin Spectral Data<<<<<
160.701	16.88
184.826	909.88
208.845	4275.88
232.758	4732.88
256.565	5048.88
280.267	5358.88
303.865	5617.88
327.359	5714.88
350.751	5769.88
374.04	5984.88
397.228	5991.88
420.315	7221.88
443.302	6062.88
466.189	5803.88
488.978	5697.88
511.668	5179.88
534.261	4717.88
556.756	4530.88
579.155	4488.88
601.459	4423.88
623.667	4287.88
645.781	4567.88
667.8	4168.88
689.726	4050.88
711.56	4022.88
733.301	3956.88
754.951	4074.88
776.509	3995.88
797.977	4043.88
819.355	3935.88
840.644	3874.88
861.844	3808.88
882.955	3719.88
903.979	3610.88
924.916	3610.88
945.766	3622.88
966.529	3484.88
987.208	3363.88
1007.801	3440.88
1028.309	3517.88
1048.734	3426.88
1069.075	3323.88
1089.333	3352.88
1109.509	3332.88
1129.602	3153.88
1149.614	3142.88
1169.545	3140.88
1189.395	3067.88
1209.165	3061.88
1228.856	3113.88
1248.467	3049.88
1268	2860.88
1287.455	2786.88
1306.832	2793.88
1326.132	2718.88
1345.354	2513.88
1364.501	2435.88
1383.572	2548.88
1402.567	2452.88
1421.487	2357.88
1440.333	2361.88
1459.104	2322.88
1477.802	2157.88
1496.426	2142.88
1514.978	2277.88
1533.457	2280.88
1551.864	2190.88
1570.199	2135.88
1588.464	2089.88
1606.657	1980.88
1624.78	1850.88
1642.834	1847.88
1660.817	1874.88
1678.732	1790.88
1696.577	1682.88
1714.355	1806.88
1732.064	1734.88
1749.705	1594.88
1767.28	1446.88
1784.787	1396.88
1802.228	1510.88
1819.603	1474.88
1836.913	1389.88
1854.156	1366.88
1871.335	1351.88
1888.449	1323.88
1905.499	1264.88
1922.485	1303.88
1939.408	1372.88
1956.267	1325.88
1973.063	1228.88
1989.797	1166.88
2006.469	1115.88
2023.078	1068.88
2039.627	1020.88
2056.114	978.88
2072.54	996.88
2088.906	1034.88
2105.211	1006.88
2121.457	985.88
2137.643	941.88
2153.77	908.88
2169.838	868.88
2185.848	836.88
2201.799	799.88
2217.693	801.88
2233.529	791.88
2249.307	756.88
2265.029	714.88
2280.694	699.88
2296.302	676.88
2311.854	651.88
2327.351	645.88
2342.792	611.88
2358.178	614.88
2373.508	611.88
2388.785	606.88
2404.007	587.88
2419.174	582.88
2434.289	573.88
2449.349	545.88
2464.356	522.88
2479.311	509.88
2494.213	494.88
2509.062	485.88
2523.859	468.88
2538.605	467.88
2553.299	468.88
2567.941	458.88
2582.533	448.88
2597.073	429.88
2611.564	419.88
2626.004	386.88
2640.394	358.88
2654.734	348.88
2669.025	333.88
2683.266	313.88
2697.458	276.88
2711.602	254.88
2725.697	228.88
2739.744	218.88
2753.743	234.88
2767.695	229.88
2781.598	228.88
2795.455	211.88
2809.264	199.88
2823.026	197.88
2836.742	194.88
2850.412	187.88
2864.035	180.88
2877.613	169.88
2891.145	154.88
2904.631	125.88
2918.073	123.88
2931.469	112.88
2944.821	102.88
2958.128	82.88
2971.39	73.88
2984.609	69.88
2997.784	74.88
3010.915	62.88
3024.002	49.88
3037.046	47.88
3050.048	26.88
3063.006	22.88
3075.922	11.88
3088.795	15.88
3101.627	15.88
3114.416	10.88
3127.163	1.88
3139.869	3.88
3152.533	-9.12
3165.157	-18.12
3177.739	-24.12
3190.28	-29.12
3202.781	-45.12
3215.241	-44.12
3227.661	-50.12
3240.041	-54.12
3252.382	-61.12
3264.682	-60.12
3276.943	-59.12
3289.165	-64.12
3301.348	-70.12
3313.492	-76.12
3325.597	-83.12
3337.663	-88.12
3349.691	-81.12
3361.681	-84.12
3373.633	-81.12
3385.547	-81.12
3397.424	-88.12
3409.263	-88.12
3421.065	-94.12
3432.829	-96.12
3444.557	-90.12
3456.247	-97.12
3467.902	-102.12
3479.519	-97.12
3491.101	-100.12
3502.646	-103.12
3514.155	-103.12
3525.629	-110.12
3537.067	-106.12
3548.469	-109.12
3559.837	-108.12
3571.169	-113.12
3582.466	-112.12
3593.728	-109.12
3604.956	-119.12
3616.149	-123.12
3627.307	-118.12
3638.432	-123.12
3649.523	-125.12
3660.579	-123.12
3671.602	-123.12
3682.591	-117.12
3693.547	-121.12
3704.47	-123.12
3715.359	-121.12
3726.216	-129.12
3737.039	-124.12
3747.83	-129.12
3758.589	-120.12
3769.315	-127.12
3780.008	-131.12
3790.67	-121.12
3801.299	-128.12
3811.897	-124.12
3822.463	-127.12
3832.998	-123.12
3843.501	-125.12
3853.973	-117.12
3864.414	-120.12
3874.823	-98.12
3885.202	-12.12
3895.55	-118.12
3905.868	-127.12
3916.155	-131.12
3926.411	-129.12
3936.638	-128.12
3946.834	-125.12
3957	-126.12
3967.137	-126.12
3977.244	-123.12
3987.321	-126.12
3997.369	-125.12
4007.388	-117.12
4017.377	-121.12
4027.338	-117.12
4037.269	-123.12
4047.172	-122.12
4057.046	-123.12
4066.891	-123.12
4076.708	-123.12
4086.497	-126.12
4096.257	-129.12
4105.989	6.88
4115.694	-7.12
4125.37	-128.12
4135.019	-130.12
4142.237	-132.12

File: EC 11 3_RamanShift_3.txt
Data from EC 11 3_RamanShift_3.txt Node

Date: Tue Aug 29 12:42:07 IDT 2017
User: aro
Spectrometer: QEPB0276
Trigger mode: 0
Integration Time (sec): 3.000000E1
Scans to average: 1
Electric dark correction enabled: true
Nonlinearity correction enabled: false
Boxcar width: 0
XAxis mode: Raman Shifts
Number of Pixels in Spectrum: 1044
>>>>>Begin Spectral Data<<<<<
160.701	21.5
184.826	818.5
208.845	3851.5
232.758	4265.5
256.565	4589.5
280.267	4830.5
303.865	5023.5
327.359	5153.5
350.751	5264.5
374.04	5413.5
397.228	5477.5
420.315	6658.5
443.302	5530.5
466.189	5289.5
488.978	5173.5
511.668	4668.5
534.261	4191.5
556.756	4022.5
579.155	3954.5
601.459	3934.5
623.667	3796.5
645.781	4105.5
667.8	3703.5
689.726	3603.5
711.56	3532.5
733.301	3535.5
754.951	3643.5
776.509	3594.5
797.977	3643.5
819.355	3547.5
840.644	3473.5
861.844	3418.5
882.955	3333.5
903.979	3220.5
924.916	3226.5
945.766	3223.5
966.529	3133.5
987.208	3029.5
1007.801	3084.5
1028.309	3146.5
1048.734	3085.5
1069.075	2991.5
1089.333	3048.5
1109.509	2999.5
1129.602	2843.5
1149.614	2813.5
1169.545	2860.5
1189.395	2781.5
1209.165	2781.5
1228.856	2811.5
1248.467	2779.5
1268	2571.5
1287.455	2540.5
1306.832	2554.5
1326.132	2460.5
1345.354	2262.5
1364.501	2218.5
1383.572	2319.5
1402.567	2256.5
1421.487	2142.5
1440.333	2147.5
1459.104	2100.5
1477.802	1989.5
1496.426	1964.5
1514.978	2079.5
1533.457	2080.5
1551.864	2015.5
1570.199	1952.5
1588.464	1907.5
1606.657	1798.5
1624.78	1717.5
1642.834	1719.5
1660.817	1722.5
1678.732	1630.5
1696.577	1575.5
1714.355	1666.5
1732.064	1607.5
1749.705	1477.5
1767.28	1345.5
1784.787	1297.5
1802.228	1387.5
1819.603	1366.5
1836.913	1288.5
1854.156	1256.5
1871.335	1241.5
1888.449	1217.5
1905.499	1182.5
1922.485	1222.5
1939.408	1267.5
1956.267	1241.5
1973.063	1147.5
1989.797	1064.5
2006.469	1045.5
2023.078	1001.5
2039.627	938.5
2056.114	908.5
2072.54	928.5
2088.906	961.5
2105.211	938.5
2121.457	924.5
2137.643	881.5
2153.77	854.5
2169.838	819.5
2185.848	785.5
2201.799	747.5
2217.693	748.5
2233.529	736.5
2249.307	714.5
2265.029	686.5
2280.694	654.5
2296.302	636.5
2311.854	618.5
2327.351	611.5
2342.792	567.5
2358.178	579.5
2373.508	587.5
2388.785	564.5
2404.007	557.5
2419.174	558.5
2434.289	537.5
2449.349	510.5
2464.356	495.5
2479.311	485.5
2494.213	473.5
2509.062	460.5
2523.859	464.5
2538.605	446.5
2553.299	455.5
2567.941	438.5
2582.533	424.5
2597.073	413.5
2611.564	407.5
2626.004	378.5
2640.394	359.5
2654.734	337.5
2669.025	317.5
2683.266	292.5
2697.458	272.5
2711.602	246.5
2725.697	220.5
2739.744	218.5
2753.743	228.5
2767.695	231.5
2781.598	223.5
2795.455	206.5
2809.264	192.5
2823.026	193.5
2836.742	196.5
2850.412	184.5
2864.035	176.5
2877.613	161.5
2891.145	151.5
2904.631	129.5
2918.073	116.5
2931.469	116.5
2944.821	99.5
2958.128	85.5
2971.39	73.5
2984.609	70.5
2997.784	66.5
3010.915	61.5
3024.002	49.5
3037.046	42.5
3050.048	36.5
3063.006	26.5
3075.922	17.5
3088.795	15.5
3101.627	18.5
3114.416	13.5
3127.163	10.5
3139.869	8.5
3152.533	-9.5
3165.157	-9.5
3177.739	-19.5
3190.28	-26.5
3202.781	-33.5
3215.241	-38.5
3227.661	-47.5
3240.041	-45.5
3252.382	-51.5
3264.682	-52.5
3276.943	-53.5
3289.165	-53.5
3301.348	-61.5
3313.492	-64.5
3325.597	-70.5
3337.663	-74.5
3349.691	-76.5
3361.681	-72.5
3373.633	-76.5
3385.547	-74.5
3397.424	-76.5
3409.263	-82.5
3421.065	-86.5
3432.829	-85.5
3444.557	-82.5
3456.247	-83.5
3467.902	-93.5
3479.519	-85.5
3491.101	-93.5
3502.646	-96.5
3514.155	-91.5
3525.629	-104.5
3537.067	-102.5
3548.469	-105.5
3559.837	-100.5
3571.169	-107.5
3582.466	-105.5
3593.728	-100.5
3604.956	-104.5
3616.149	-113.5
3627.307	-114.5
3638.432	-107.5
3649.523	-113.5
3660.579	-105.5
3671.602	-108.5
3682.591	-112.5
3693.547	-108.5
3704.47	-112.5
3715.359	-107.5
3726.216	-115.5
3737.039	-112.5
3747.83	-115.5
3758.589	-115.5
3769.315	-117.5
3780.008	-121.5
3790.67	-116.5
3801.299	-112.5
3811.897	-120.5
3822.463	-120.5
3832.998	-110.5
3843.501	-115.5
3853.973	-113.5
3864.414	-114.5
3874.823	-88.5
3885.202	-6.5
3895.55	-101.5
3905.868	-116.5
3916.155	-115.5
3926.411	-116.5
3936.638	-118.5
3946.834	-112.5
3957	-115.5
3967.137	-118.5
3977.244	-113.5
3987.321	-115.5
3997.369	-116.5
4007.388	-114.5
4017.377	-108.5
4027.338	-109.5
4037.269	-114.5
4047.172	-114.5
4057.046	-109.5
4066.891	-116.5
4076.708	-115.5
4086.497	-115.5
4096.257	-119.5
4105.989	13.5
4115.694	2.5
4125.37	-123.5
4135.019	-120.5
4142.237	-126.5

File: EC 11 4_RamanShift_1.txt
Data from EC 11 4_RamanShift_1.txt Node

Date: Tue Aug 29 12:44:07 IDT 2017
User: aro
Spectrometer: QEPB0276
Trigger mode: 0
Integration Time (sec): 3.000000E1
Scans to average: 1
Electric dark correction enabled: true
Nonlinearity correction enabled: false
Boxcar width: 0
XAxis mode: Raman Shifts
Number of Pixels in Spectrum: 1044
>>>>>Begin Spectral Data<<<<<
160.701	5.75
184.826	1219.75
208.845	5640.75
232.758	6248.75
256.565	6743.75
280.267	7038.75
303.865	7347.75
327.359	7506.75
350.751	7594.75
374.04	7730.75
397.228	7790.75
420.315	9107.75
443.302	7855.75
466.189	7535.75
488.978	7421.75
511.668	6831.75
534.261	6281.75
556.756	6095.75
579.155	6013.75
601.459	5922.75
623.667	5777.75
645.781	6017.75
667.8	5625.75
689.726	5501.75
711.56	5369.75
733.301	5313.75
754.951	5414.75
776.509	5349.75
797.977	5339.75
819.355	5219.75
840.644	5150.75
861.844	5068.75
882.955	4933.75
903.979	4780.75
924.916	4759.75
945.766	4722.75
966.529	4608.75
987.208	4440.75
1007.801	4501.75
1028.309	4586.75
1048.734	4454.75
1069.075	4348.75
1089.333	4368.75
1109.509	4339.75
1129.602	4100.75
1149.614	4067.75
1169.545	4102.75
1189.395	4001.75
1209.165	3949.75
1228.856	3997.75
1248.467	3929.75
1268	3698.75
1287.455	3569.75
1306.832	3601.75
1326.132	3498.75
1345.354	3199.75
1364.501	3163.75
1383.572	3297.75
1402.567	3177.75
1421.487	3022.75
1440.333	2987.75
1459.104	2940.75
1477.802	2790.75
1496.426	2793.75
1514.978	2953.75
1533.457	2926.75
1551.864	2799.75
1570.199	2701.75
1588.464	2630.75
1606.657	2511.75
1624.78	2374.75
1642.834	2331.75
1660.817	2378.75
1678.732	2301.75
1696.577	2204.75
1714.355	2328.75
1732.064	2224.75
1749.705	2060.75
1767.28	1844.75
1784.787	1791.75
1802.228	1938.75
1819.603	1858.75
1836.913	1757.75
1854.156	1700.75
1871.335	1704.75
1888.449	1693.75
1905.499	1644.75
1922.485	1689.75
1939.408	1752.75
1956.267	1697.75
1973.063	1561.75
1989.797	1449.75
2006.469	1417.75
2023.078	1342.75
2039.627	1251.75
2056.114	1208.75
2072.54	1246.75
2088.906	1299.75
2105.211	1261.75
2121.457	1215.75
2137.643	1168.75
2153.77	1131.75
2169.838	1059.75
2185.848	1008.75
2201.799	968.75
2217.693	967.75
2233.529	956.75
2249.307	908.75
2265.029	864.75
2280.694	832.75
2296.302	799.75
2311.854	764.75
2327.351	760.75
2342.792	727.75
2358.178	712.75
2373.508	730.75
2388.785	696.75
2404.007	690.75
2419.174	673.75
2434.289	642.75
2449.349	615.75
2464.356	590.75
2479.311	578.75
2494.213	573.75
2509.062	557.75
2523.859	544.75
2538.605	536.75
2553.299	527.75
2567.941	533.75
2582.533	519.75
2597.073	484.75
2611.564	475.75
2626.004	443.75
2640.394	423.75
2654.734	382.75
2669.025	362.75
2683.266	341.75
2697.458	306.75
2711.602	276.75
2725.697	239.75
2739.744	242.75
2753.743	255.75
2767.695	258.75
2781.598	238.75
2795.455	231.75
2809.264	214.75
2823.026	212.75
2836.742	209.75
2850.412	201.75
2864.035	184.75
2877.613	169.75
2891.145	148.75
2904.631	129.75
2918.073	106.75
2931.469	90.75
2944.821	78.75
2958.128	61.75
2971.39	53.75
2984.609	47.75
2997.784	50.75
3010.915	37.75
3024.002	25.75
3037.046	16.75
3050.048	-1.25
3063.006	0.75
3075.922	-3.25
3088.795	-13.25
3101.627	-12.25
3114.416	-8.25
3127.163	-20.25
3139.869	-25.25
3152.533	-36.25
3165.157	-42.25
3177.739	-52.25
3190.28	-65.25
3202.781	-71.25
3215.241	-69.25
3227.661	-78.25
3240.041	-82.25
3252.382	-90.25
3264.682	-84.25
3276.943	-88.25
3289.165	-90.25
3301.348	-101.25
3313.492	-107.25
3325.597	-109.25
3337.663	-116.25
3349.691	-114.25
3361.681	-116.25
3373.633	-116.25
3385.547	-124.25
3397.424	-121.25
3409.263	-135.25
3421.065	-126.25
3432.829	-132.25
3444.557	-133.25
3456.247	-134.25
3467.902	-145.25
3479.519	-133.25
3491.101	-139.25
3502.646	-137.25
3514.155	-138.25
3525.629	-150.25
3537.067	-146.25
3548.469	-145.25
3559.837	-145.25
3571.169	-153.25
3582.466	-149.25
3593.728	-149.25
3604.956	-151.25
3616.149	-158.25
3627.307	-157.25
3638.432	-158.25
3649.523	-159.25
3660.579	-160.25
3671.602	-158.25
3682.591	-159.25
3693.547	-159.25
3704.47	-171.25
3715.359	-159.25
3726.216	-162.25
3737.039	-165.25
3747.83	-161.25
3758.589	-163.25
3769.315	-162.25
3780.008	-166.25
3790.67	-161.25
3801.299	-160.25
3811.897	-162.25
3822.463	-160.25
3832.998	-158.25
3843.501	-160.25
3853.973	-163.25
3864.414	-158.25
3874.823	-130.25
3885.202	-48.25
3895.55	-151.25
3905.868	-162.25
3916.155	-165.25
3926.411	-166.25
3936.638	-166.25
3946.834	-165.25
3957	-163.25
3967.137	-162.25
3977.244	-161.25
3987.321	-161.25
3997.369	-162.25
4007.388	-160.25
4017.377	-162.25
4027.338	-156.25
4037.269	-158.25
4047.172	-159.25
4057.046	-158.25
4066.891	-166.25
4076.708	-161.25
4086.497	-160.25
4096.257	-167.25
4105.989	-26.25
4115.694	-16.25
4125.37	-161.25
4135.019	-170.25
4142.237	-174.25

File: EC 11 4_RamanShift_2.txt
Data from EC 11 4_RamanShift_2.txt Node

Date: Tue Aug 29 12:44:37 IDT 2017
User: aro
Spectrometer: QEPB0276
Trigger mode: 0
Integration Time (sec): 3.000000E1
Scans to average: 1
Electric dark correction enabled: true
Nonlinearity correction enabled: false
Boxcar width: 0
XAxis mode: Raman Shifts
Number of Pixels in Spectrum: 1044
>>>>>Begin Spectral Data<<<<<
160.701	17.5
184.826	940.5
208.845	4351.5
232.758	4816.5
256.565	5199.5
280.267	5459.5
303.865	5732.5
327.359	5836.5
350.751	5925.5
374.04	6143.5
397.228	6146.5
420.315	7443.5
443.302	6244.5
466.189	5982.5
488.978	5867.5
511.668	5290.5
534.261	4750.5
556.756	4579.5
579.155	4571.5
601.459	4501.5
623.667	4354.5
645.781	4629.5
667.8	4248.5
689.726	4138.5
711.56	4044.5
733.301	4003.5
754.951	4144.5
776.509	4062.5
797.977	4145.5
819.355	4031.5
840.644	3945.5
861.844	3865.5
882.955	3747.5
903.979	3644.5
924.916	3629.5
945.766	3640.5
966.529	3546.5
987.208	3432.5
1007.801	3495.5
1028.309	3553.5
1048.734	3460.5
1069.075	3371.5
1089.333	3393.5
1109.509	3365.5
1129.602	3184.5
1149.614	3169.5
1169.545	3184.5
1189.395	3127.5
1209.165	3087.5
1228.856	3156.5
1248.467	3086.5
1268	2901.5
1287.455	2814.5
1306.832	2819.5
1326.132	2733.5
1345.354	2508.5
1364.501	2494.5
1383.572	2611.5
1402.567	2498.5
1421.487	2392.5
1440.333	2394.5
1459.104	2347.5
1477.802	2202.5
1496.426	2229.5
1514.978	2343.5
1533.457	2362.5
1551.864	2265.5
1570.199	2174.5
1588.464	2107.5
1606.657	2007.5
1624.78	1928.5
1642.834	1894.5
1660.817	1927.5
1678.732	1863.5
1696.577	1786.5
1714.355	1869.5
1732.064	1823.5
1749.705	1660.5
1767.28	1524.5
1784.787	1466.5
1802.228	1579.5
1819.603	1529.5
1836.913	1417.5
1854.156	1392.5
1871.335	1408.5
1888.449	1381.5
1905.499	1355.5
1922.485	1382.5
1939.408	1435.5
1956.267	1401.5
1973.063	1298.5
1989.797	1193.5
2006.469	1180.5
2023.078	1115.5
2039.627	1050.5
2056.114	1021.5
2072.54	1056.5
2088.906	1071.5
2105.211	1057.5
2121.457	1025.5
2137.643	991.5
2153.77	938.5
2169.838	906.5
2185.848	849.5
2201.799	828.5
2217.693	813.5
2233.529	823.5
2249.307	781.5
2265.029	745.5
2280.694	724.5
2296.302	684.5
2311.854	659.5
2327.351	649.5
2342.792	617.5
2358.178	617.5
2373.508	628.5
2388.785	620.5
2404.007	592.5
2419.174	596.5
2434.289	567.5
2449.349	549.5
2464.356	510.5
2479.311	495.5
2494.213	500.5
2509.062	489.5
2523.859	480.5
2538.605	466.5
2553.299	480.5
2567.941	466.5
2582.533	463.5
2597.073	425.5
2611.564	407.5
2626.004	399.5
2640.394	372.5
2654.734	354.5
2669.025	324.5
2683.266	306.5
2697.458	274.5
2711.602	253.5
2725.697	230.5
2739.744	224.5
2753.743	225.5
2767.695	241.5
2781.598	222.5
2795.455	209.5
2809.264	202.5
2823.026	199.5
2836.742	189.5
2850.412	177.5
2864.035	177.5
2877.613	165.5
2891.145	154.5
2904.631	124.5
2918.073	119.5
2931.469	105.5
2944.821	96.5
2958.128	75.5
2971.39	68.5
2984.609	62.5
2997.784	71.5
3010.915	60.5
3024.002	32.5
3037.046	33.5
3050.048	26.5
3063.006	13.5
3075.922	15.5
3088.795	2.5
3101.627	5.5
3114.416	8.5
3127.163	-4.5
3139.869	-7.5
3152.533	-20.5
3165.157	-22.5
3177.739	-29.5
3190.28	-37.5
3202.781	-53.5
3215.241	-56.5
3227.661	-61.5
3240.041	-58.5
3252.382	-59.5
3264.682	-56.5
3276.943	-58.5
3289.165	-66.5
3301.348	-76.5
3313.492	-74.5
3325.597	-85.5
3337.663	-91.5
3349.691	-88.5
3361.681	-82.5
3373.633	-82.5
3385.547	-89.5
3397.424	-88.5
3409.263	-96.5
3421.065	-98.5
3432.829	-97.5
3444.557	-96.5
3456.247	-106.5
3467.902	-106.5
3479.519	-104.5
3491.101	-109.5
3502.646	-108.5
3514.155	-113.5
3525.629	-116.5
3537.067	-119.5
3548.469	-120.5
3559.837	-113.5
3571.169	-118.5
3582.466	-113.5
3593.728	-114.5
3604.956	-117.5
3616.149	-127.5
3627.307	-121.5
3638.432	-123.5
3649.523	-121.5
3660.579	-127.5
3671.602	-125.5
3682.591	-121.5
3693.547	-124.5
3704.47	-131.5
3715.359	-131.5
3726.216	-131.5
3737.039	-133.5
3747.83	-132.5
3758.589	-128.5
3769.315	-130.5
3780.008	-139.5
3790.67	-130.5
3801.299	-129.5
3811.897	-133.5
3822.463	-132.5
3832.998	-128.5
3843.501	-126.5
3853.973	-128.5
3864.414	-129.5
3874.823	-96.5
3885.202	-21.5
3895.55	-117.5
3905.868	-133.5
3916.155	-129.5
3926.411	-129.5
3936.638	-135.5
3946.834	-129.5
3957	-128.5
3967.137	-135.5
3977.244	-130.5
3987.321	-124.5
3997.369	-128.5
4007.388	-125.5
4017.377	-124.5
4027.338	-121.5
4037.269	-126.5
4047.172	-127.5
4057.046	-128.5
4066.891	-129.5
4076.708	-127.5
4086.497	-128.5
4096.257	-133.5
4105.989	-0.5
4115.694	0.5
4125.37	-132.5
4135.019	-136.5
4142.237	-139.5