Folder: Water/Data/Raman/2017-08-29 - Alluminum 2/Aug 29 2017 - Aluminum 2 (part 5)

File: EC 11 5_RamanShift_1.txt
Data from EC 11 5_RamanShift_1.txt Node

Date: Tue Aug 29 12:55:37 IDT 2017
User: aro
Spectrometer: QEPB0276
Trigger mode: 0
Integration Time (sec): 3.000000E1
Scans to average: 1
Electric dark correction enabled: true
Nonlinearity correction enabled: false
Boxcar width: 0
XAxis mode: Raman Shifts
Number of Pixels in Spectrum: 1044
>>>>>Begin Spectral Data<<<<<
160.701	8.88
184.826	1358.88
208.845	6181.88
232.758	6785.88
256.565	7170.88
280.267	7504.88
303.865	7764.88
327.359	7907.88
350.751	7997.88
374.04	8077.88
397.228	8146.88
420.315	9396.88
443.302	8123.88
466.189	7832.88
488.978	7684.88
511.668	7121.88
534.261	6567.88
556.756	6348.88
579.155	6255.88
601.459	6168.88
623.667	5942.88
645.781	6217.88
667.8	5787.88
689.726	5651.88
711.56	5522.88
733.301	5423.88
754.951	5475.88
776.509	5442.88
797.977	5418.88
819.355	5278.88
840.644	5210.88
861.844	5117.88
882.955	4964.88
903.979	4822.88
924.916	4793.88
945.766	4775.88
966.529	4639.88
987.208	4468.88
1007.801	4575.88
1028.309	4628.88
1048.734	4527.88
1069.075	4389.88
1089.333	4422.88
1109.509	4382.88
1129.602	4177.88
1149.614	4123.88
1169.545	4160.88
1189.395	4070.88
1209.165	4035.88
1228.856	4105.88
1248.467	4049.88
1268	3797.88
1287.455	3737.88
1306.832	3799.88
1326.132	3754.88
1345.354	3547.88
1364.501	3603.88
1383.572	3688.88
1402.567	3436.88
1421.487	3271.88
1440.333	3344.88
1459.104	3413.88
1477.802	3346.88
1496.426	3489.88
1514.978	3679.88
1533.457	3582.88
1551.864	3346.88
1570.199	3140.88
1588.464	3084.88
1606.657	2926.88
1624.78	2797.88
1642.834	2892.88
1660.817	3008.88
1678.732	3031.88
1696.577	2991.88
1714.355	3107.88
1732.064	2913.88
1749.705	2687.88
1767.28	2512.88
1784.787	2562.88
1802.228	2706.88
1819.603	2537.88
1836.913	2346.88
1854.156	2305.88
1871.335	2350.88
1888.449	2371.88
1905.499	2394.88
1922.485	2511.88
1939.408	2590.88
1956.267	2439.88
1973.063	2181.88
1989.797	2011.88
2006.469	1913.88
2023.078	1843.88
2039.627	1756.88
2056.114	1759.88
2072.54	1830.88
2088.906	1882.88
2105.211	1824.88
2121.457	1719.88
2137.643	1608.88
2153.77	1520.88
2169.838	1442.88
2185.848	1342.88
2201.799	1286.88
2217.693	1280.88
2233.529	1247.88
2249.307	1192.88
2265.029	1123.88
2280.694	1069.88
2296.302	1010.88
2311.854	952.88
2327.351	899.88
2342.792	836.88
2358.178	820.88
2373.508	823.88
2388.785	796.88
2404.007	768.88
2419.174	742.88
2434.289	713.88
2449.349	708.88
2464.356	661.88
2479.311	654.88
2494.213	672.88
2509.062	668.88
2523.859	651.88
2538.605	654.88
2553.299	648.88
2567.941	638.88
2582.533	615.88
2597.073	569.88
2611.564	549.88
2626.004	505.88
2640.394	478.88
2654.734	429.88
2669.025	397.88
2683.266	384.88
2697.458	338.88
2711.602	309.88
2725.697	303.88
2739.744	309.88
2753.743	319.88
2767.695	328.88
2781.598	294.88
2795.455	277.88
2809.264	263.88
2823.026	269.88
2836.742	254.88
2850.412	237.88
2864.035	227.88
2877.613	216.88
2891.145	183.88
2904.631	154.88
2918.073	132.88
2931.469	116.88
2944.821	105.88
2958.128	96.88
2971.39	81.88
2984.609	83.88
2997.784	77.88
3010.915	70.88
3024.002	44.88
3037.046	26.88
3050.048	13.88
3063.006	-2.12
3075.922	2.88
3088.795	-6.12
3101.627	-4.12
3114.416	-14.12
3127.163	-28.12
3139.869	-22.12
3152.533	-35.12
3165.157	-46.12
3177.739	-55.12
3190.28	-69.12
3202.781	-71.12
3215.241	-76.12
3227.661	-86.12
3240.041	-86.12
3252.382	-91.12
3264.682	-95.12
3276.943	-103.12
3289.165	-105.12
3301.348	-112.12
3313.492	-115.12
3325.597	-128.12
3337.663	-127.12
3349.691	-123.12
3361.681	-128.12
3373.633	-125.12
3385.547	-133.12
3397.424	-127.12
3409.263	-136.12
3421.065	-139.12
3432.829	-142.12
3444.557	-140.12
3456.247	-145.12
3467.902	-153.12
3479.519	-147.12
3491.101	-155.12
3502.646	-150.12
3514.155	-158.12
3525.629	-164.12
3537.067	-162.12
3548.469	-167.12
3559.837	-163.12
3571.169	-167.12
3582.466	-163.12
3593.728	-164.12
3604.956	-169.12
3616.149	-179.12
3627.307	-174.12
3638.432	-173.12
3649.523	-173.12
3660.579	-173.12
3671.602	-174.12
3682.591	-173.12
3693.547	-173.12
3704.47	-179.12
3715.359	-171.12
3726.216	-180.12
3737.039	-175.12
3747.83	-175.12
3758.589	-179.12
3769.315	-177.12
3780.008	-186.12
3790.67	-180.12
3801.299	-175.12
3811.897	-184.12
3822.463	-179.12
3832.998	-178.12
3843.501	-181.12
3853.973	-180.12
3864.414	-178.12
3874.823	-151.12
3885.202	-62.12
3895.55	-168.12
3905.868	-178.12
3916.155	-182.12
3926.411	-182.12
3936.638	-184.12
3946.834	-180.12
3957	-180.12
3967.137	-180.12
3977.244	-184.12
3987.321	-175.12
3997.369	-175.12
4007.388	-172.12
4017.377	-170.12
4027.338	-171.12
4037.269	-171.12
4047.172	-175.12
4057.046	-173.12
4066.891	-181.12
4076.708	-176.12
4086.497	-174.12
4096.257	-186.12
4105.989	-15.12
4115.694	-18.12
4125.37	-178.12
4135.019	-185.12
4142.237	-190.12

File: EC 11 5_RamanShift_2.txt
Data from EC 11 5_RamanShift_2.txt Node

Date: Tue Aug 29 12:56:07 IDT 2017
User: aro
Spectrometer: QEPB0276
Trigger mode: 0
Integration Time (sec): 3.000000E1
Scans to average: 1
Electric dark correction enabled: true
Nonlinearity correction enabled: false
Boxcar width: 0
XAxis mode: Raman Shifts
Number of Pixels in Spectrum: 1044
>>>>>Begin Spectral Data<<<<<
160.701	19.88
184.826	1100.88
208.845	4971.88
232.758	5417.88
256.565	5752.88
280.267	5983.88
303.865	6253.88
327.359	6402.88
350.751	6467.88
374.04	6615.88
397.228	6648.88
420.315	7924.88
443.302	6692.88
466.189	6438.88
488.978	6296.88
511.668	5759.88
534.261	5217.88
556.756	5017.88
579.155	4951.88
601.459	4861.88
623.667	4735.88
645.781	5018.88
667.8	4604.88
689.726	4463.88
711.56	4347.88
733.301	4298.88
754.951	4410.88
776.509	4347.88
797.977	4366.88
819.355	4245.88
840.644	4142.88
861.844	4108.88
882.955	4012.88
903.979	3863.88
924.916	3855.88
945.766	3870.88
966.529	3765.88
987.208	3610.88
1007.801	3695.88
1028.309	3763.88
1048.734	3657.88
1069.075	3576.88
1089.333	3591.88
1109.509	3566.88
1129.602	3399.88
1149.614	3341.88
1169.545	3400.88
1189.395	3331.88
1209.165	3305.88
1228.856	3340.88
1248.467	3311.88
1268	3139.88
1287.455	3060.88
1306.832	3116.88
1326.132	3070.88
1345.354	2906.88
1364.501	2942.88
1383.572	3009.88
1402.567	2794.88
1421.487	2713.88
1440.333	2750.88
1459.104	2784.88
1477.802	2741.88
1496.426	2818.88
1514.978	2995.88
1533.457	2949.88
1551.864	2750.88
1570.199	2613.88
1588.464	2519.88
1606.657	2402.88
1624.78	2322.88
1642.834	2366.88
1660.817	2496.88
1678.732	2518.88
1696.577	2486.88
1714.355	2560.88
1732.064	2399.88
1749.705	2206.88
1767.28	2070.88
1784.787	2090.88
1802.228	2247.88
1819.603	2097.88
1836.913	1923.88
1854.156	1910.88
1871.335	1924.88
1888.449	1960.88
1905.499	1998.88
1922.485	2068.88
1939.408	2136.88
1956.267	2020.88
1973.063	1794.88
1989.797	1646.88
2006.469	1596.88
2023.078	1540.88
2039.627	1460.88
2056.114	1460.88
2072.54	1519.88
2088.906	1561.88
2105.211	1506.88
2121.457	1437.88
2137.643	1353.88
2153.77	1288.88
2169.838	1198.88
2185.848	1138.88
2201.799	1087.88
2217.693	1067.88
2233.529	1068.88
2249.307	990.88
2265.029	964.88
2280.694	915.88
2296.302	864.88
2311.854	799.88
2327.351	778.88
2342.792	734.88
2358.178	707.88
2373.508	717.88
2388.785	696.88
2404.007	667.88
2419.174	646.88
2434.289	619.88
2449.349	608.88
2464.356	569.88
2479.311	563.88
2494.213	562.88
2509.062	575.88
2523.859	557.88
2538.605	571.88
2553.299	578.88
2567.941	556.88
2582.533	538.88
2597.073	516.88
2611.564	486.88
2626.004	438.88
2640.394	412.88
2654.734	386.88
2669.025	356.88
2683.266	331.88
2697.458	307.88
2711.602	281.88
2725.697	275.88
2739.744	284.88
2753.743	297.88
2767.695	288.88
2781.598	269.88
2795.455	247.88
2809.264	249.88
2823.026	248.88
2836.742	222.88
2850.412	218.88
2864.035	201.88
2877.613	186.88
2891.145	164.88
2904.631	152.88
2918.073	125.88
2931.469	110.88
2944.821	106.88
2958.128	95.88
2971.39	84.88
2984.609	74.88
2997.784	79.88
3010.915	58.88
3024.002	44.88
3037.046	22.88
3050.048	17.88
3063.006	8.88
3075.922	12.88
3088.795	1.88
3101.627	8.88
3114.416	-3.12
3127.163	-7.12
3139.869	-8.12
3152.533	-21.12
3165.157	-31.12
3177.739	-36.12
3190.28	-49.12
3202.781	-56.12
3215.241	-67.12
3227.661	-67.12
3240.041	-73.12
3252.382	-73.12
3264.682	-72.12
3276.943	-84.12
3289.165	-81.12
3301.348	-92.12
3313.492	-90.12
3325.597	-103.12
3337.663	-108.12
3349.691	-105.12
3361.681	-107.12
3373.633	-113.12
3385.547	-110.12
3397.424	-105.12
3409.263	-116.12
3421.065	-116.12
3432.829	-119.12
3444.557	-115.12
3456.247	-124.12
3467.902	-128.12
3479.519	-121.12
3491.101	-122.12
3502.646	-129.12
3514.155	-124.12
3525.629	-131.12
3537.067	-134.12
3548.469	-140.12
3559.837	-134.12
3571.169	-137.12
3582.466	-138.12
3593.728	-138.12
3604.956	-138.12
3616.149	-149.12
3627.307	-146.12
3638.432	-146.12
3649.523	-149.12
3660.579	-143.12
3671.602	-142.12
3682.591	-145.12
3693.547	-145.12
3704.47	-150.12
3715.359	-147.12
3726.216	-153.12
3737.039	-154.12
3747.83	-144.12
3758.589	-146.12
3769.315	-151.12
3780.008	-161.12
3790.67	-151.12
3801.299	-153.12
3811.897	-153.12
3822.463	-149.12
3832.998	-144.12
3843.501	-151.12
3853.973	-151.12
3864.414	-153.12
3874.823	-123.12
3885.202	-30.12
3895.55	-136.12
3905.868	-154.12
3916.155	-154.12
3926.411	-153.12
3936.638	-159.12
3946.834	-154.12
3957	-155.12
3967.137	-148.12
3977.244	-148.12
3987.321	-148.12
3997.369	-151.12
4007.388	-143.12
4017.377	-146.12
4027.338	-143.12
4037.269	-151.12
4047.172	-146.12
4057.046	-143.12
4066.891	-149.12
4076.708	-150.12
4086.497	-151.12
4096.257	-157.12
4105.989	-4.12
4115.694	-3.12
4125.37	-151.12
4135.019	-157.12
4142.237	-162.12

File: EC 11 5_RamanShift_3.txt
Data from EC 11 5_RamanShift_3.txt Node

Date: Tue Aug 29 12:56:37 IDT 2017
User: aro
Spectrometer: QEPB0276
Trigger mode: 0
Integration Time (sec): 3.000000E1
Scans to average: 1
Electric dark correction enabled: true
Nonlinearity correction enabled: false
Boxcar width: 0
XAxis mode: Raman Shifts
Number of Pixels in Spectrum: 1044
>>>>>Begin Spectral Data<<<<<
160.701	16.5
184.826	996.5
208.845	4492.5
232.758	4895.5
256.565	5212.5
280.267	5452.5
303.865	5679.5
327.359	5798.5
350.751	5874.5
374.04	6055.5
397.228	6067.5
420.315	7353.5
443.302	6109.5
466.189	5875.5
488.978	5734.5
511.668	5191.5
534.261	4678.5
556.756	4511.5
579.155	4448.5
601.459	4369.5
623.667	4249.5
645.781	4507.5
667.8	4116.5
689.726	3989.5
711.56	3914.5
733.301	3875.5
754.951	4008.5
776.509	3891.5
797.977	3930.5
819.355	3835.5
840.644	3742.5
861.844	3700.5
882.955	3586.5
903.979	3493.5
924.916	3468.5
945.766	3452.5
966.529	3355.5
987.208	3241.5
1007.801	3334.5
1028.309	3377.5
1048.734	3312.5
1069.075	3232.5
1089.333	3285.5
1109.509	3241.5
1129.602	3059.5
1149.614	3064.5
1169.545	3066.5
1189.395	3016.5
1209.165	2986.5
1228.856	3063.5
1248.467	3013.5
1268	2840.5
1287.455	2769.5
1306.832	2830.5
1326.132	2800.5
1345.354	2642.5
1364.501	2659.5
1383.572	2747.5
1402.567	2550.5
1421.487	2453.5
1440.333	2492.5
1459.104	2546.5
1477.802	2474.5
1496.426	2573.5
1514.978	2724.5
1533.457	2689.5
1551.864	2476.5
1570.199	2379.5
1588.464	2308.5
1606.657	2182.5
1624.78	2121.5
1642.834	2154.5
1660.817	2259.5
1678.732	2265.5
1696.577	2257.5
1714.355	2351.5
1732.064	2194.5
1749.705	2001.5
1767.28	1889.5
1784.787	1911.5
1802.228	2031.5
1819.603	1910.5
1836.913	1750.5
1854.156	1719.5
1871.335	1763.5
1888.449	1793.5
1905.499	1805.5
1922.485	1877.5
1939.408	1964.5
1956.267	1855.5
1973.063	1654.5
1989.797	1502.5
2006.469	1440.5
2023.078	1403.5
2039.627	1348.5
2056.114	1325.5
2072.54	1385.5
2088.906	1431.5
2105.211	1381.5
2121.457	1293.5
2137.643	1231.5
2153.77	1180.5
2169.838	1119.5
2185.848	1038.5
2201.799	1000.5
2217.693	997.5
2233.529	968.5
2249.307	930.5
2265.029	889.5
2280.694	819.5
2296.302	802.5
2311.854	739.5
2327.351	714.5
2342.792	667.5
2358.178	651.5
2373.508	657.5
2388.785	638.5
2404.007	617.5
2419.174	608.5
2434.289	596.5
2449.349	573.5
2464.356	542.5
2479.311	525.5
2494.213	527.5
2509.062	543.5
2523.859	520.5
2538.605	524.5
2553.299	523.5
2567.941	524.5
2582.533	495.5
2597.073	463.5
2611.564	446.5
2626.004	418.5
2640.394	376.5
2654.734	355.5
2669.025	338.5
2683.266	313.5
2697.458	281.5
2711.602	266.5
2725.697	249.5
2739.744	260.5
2753.743	270.5
2767.695	265.5
2781.598	248.5
2795.455	233.5
2809.264	230.5
2823.026	227.5
2836.742	216.5
2850.412	201.5
2864.035	200.5
2877.613	179.5
2891.145	166.5
2904.631	129.5
2918.073	123.5
2931.469	109.5
2944.821	105.5
2958.128	81.5
2971.39	78.5
2984.609	70.5
2997.784	67.5
3010.915	66.5
3024.002	36.5
3037.046	33.5
3050.048	21.5
3063.006	6.5
3075.922	12.5
3088.795	2.5
3101.627	7.5
3114.416	3.5
3127.163	-5.5
3139.869	-11.5
3152.533	-20.5
3165.157	-32.5
3177.739	-30.5
3190.28	-42.5
3202.781	-48.5
3215.241	-59.5
3227.661	-61.5
3240.041	-64.5
3252.382	-66.5
3264.682	-70.5
3276.943	-70.5
3289.165	-75.5
3301.348	-79.5
3313.492	-82.5
3325.597	-97.5
3337.663	-98.5
3349.691	-96.5
3361.681	-97.5
3373.633	-100.5
3385.547	-104.5
3397.424	-99.5
3409.263	-105.5
3421.065	-102.5
3432.829	-102.5
3444.557	-106.5
3456.247	-111.5
3467.902	-116.5
3479.519	-110.5
3491.101	-119.5
3502.646	-116.5
3514.155	-116.5
3525.629	-124.5
3537.067	-125.5
3548.469	-132.5
3559.837	-123.5
3571.169	-128.5
3582.466	-123.5
3593.728	-127.5
3604.956	-129.5
3616.149	-137.5
3627.307	-133.5
3638.432	-135.5
3649.523	-136.5
3660.579	-134.5
3671.602	-130.5
3682.591	-134.5
3693.547	-138.5
3704.47	-140.5
3715.359	-138.5
3726.216	-139.5
3737.039	-140.5
3747.83	-140.5
3758.589	-141.5
3769.315	-135.5
3780.008	-146.5
3790.67	-136.5
3801.299	-141.5
3811.897	-138.5
3822.463	-143.5
3832.998	-139.5
3843.501	-137.5
3853.973	-140.5
3864.414	-142.5
3874.823	-114.5
3885.202	-29.5
3895.55	-127.5
3905.868	-138.5
3916.155	-142.5
3926.411	-146.5
3936.638	-144.5
3946.834	-141.5
3957	-140.5
3967.137	-140.5
3977.244	-141.5
3987.321	-137.5
3997.369	-142.5
4007.388	-133.5
4017.377	-134.5
4027.338	-133.5
4037.269	-136.5
4047.172	-137.5
4057.046	-134.5
4066.891	-139.5
4076.708	-141.5
4086.497	-142.5
4096.257	-147.5
4105.989	-3.5
4115.694	-5.5
4125.37	-138.5
4135.019	-143.5
4142.237	-148.5

File: EC 12 1_RamanShift_1.txt
Data from EC 12 1_RamanShift_1.txt Node

Date: Tue Aug 29 12:12:37 IDT 2017
User: aro
Spectrometer: QEPB0276
Trigger mode: 0
Integration Time (sec): 3.000000E1
Scans to average: 1
Electric dark correction enabled: true
Nonlinearity correction enabled: false
Boxcar width: 0
XAxis mode: Raman Shifts
Number of Pixels in Spectrum: 1044
>>>>>Begin Spectral Data<<<<<
160.701	18.38
184.826	676.38
208.845	3124.38
232.758	3368.38
256.565	3603.38
280.267	3768.38
303.865	3969.38
327.359	4043.38
350.751	4156.38
374.04	4342.38
397.228	4381.38
420.315	5846.38
443.302	4451.38
466.189	4155.38
488.978	4047.38
511.668	3490.38
534.261	2920.38
556.756	2746.38
579.155	2714.38
601.459	2671.38
623.667	2573.38
645.781	2949.38
667.8	2476.38
689.726	2373.38
711.56	2310.38
733.301	2294.38
754.951	2451.38
776.509	2370.38
797.977	2415.38
819.355	2350.38
840.644	2256.38
861.844	2191.38
882.955	2086.38
903.979	2035.38
924.916	2009.38
945.766	1980.38
966.529	1948.38
987.208	1880.38
1007.801	1916.38
1028.309	1964.38
1048.734	1933.38
1069.075	1868.38
1089.333	1889.38
1109.509	1852.38
1129.602	1752.38
1149.614	1737.38
1169.545	1755.38
1189.395	1717.38
1209.165	1713.38
1228.856	1726.38
1248.467	1691.38
1268	1600.38
1287.455	1548.38
1306.832	1563.38
1326.132	1520.38
1345.354	1413.38
1364.501	1395.38
1383.572	1401.38
1402.567	1356.38
1421.487	1293.38
1440.333	1323.38
1459.104	1297.38
1477.802	1234.38
1496.426	1231.38
1514.978	1284.38
1533.457	1276.38
1551.864	1214.38
1570.199	1181.38
1588.464	1156.38
1606.657	1091.38
1624.78	1052.38
1642.834	1055.38
1660.817	1066.38
1678.732	1022.38
1696.577	986.38
1714.355	1003.38
1732.064	972.38
1749.705	895.38
1767.28	820.38
1784.787	791.38
1802.228	825.38
1819.603	805.38
1836.913	758.38
1854.156	751.38
1871.335	759.38
1888.449	741.38
1905.499	734.38
1922.485	744.38
1939.408	754.38
1956.267	740.38
1973.063	680.38
1989.797	607.38
2006.469	622.38
2023.078	582.38
2039.627	549.38
2056.114	527.38
2072.54	559.38
2088.906	558.38
2105.211	547.38
2121.457	536.38
2137.643	502.38
2153.77	488.38
2169.838	457.38
2185.848	441.38
2201.799	425.38
2217.693	420.38
2233.529	419.38
2249.307	400.38
2265.029	387.38
2280.694	362.38
2296.302	355.38
2311.854	337.38
2327.351	335.38
2342.792	307.38
2358.178	300.38
2373.508	312.38
2388.785	303.38
2404.007	308.38
2419.174	288.38
2434.289	295.38
2449.349	269.38
2464.356	256.38
2479.311	256.38
2494.213	247.38
2509.062	247.38
2523.859	234.38
2538.605	236.38
2553.299	234.38
2567.941	224.38
2582.533	207.38
2597.073	203.38
2611.564	198.38
2626.004	186.38
2640.394	164.38
2654.734	162.38
2669.025	142.38
2683.266	138.38
2697.458	112.38
2711.602	114.38
2725.697	96.38
2739.744	100.38
2753.743	98.38
2767.695	103.38
2781.598	89.38
2795.455	87.38
2809.264	79.38
2823.026	77.38
2836.742	74.38
2850.412	72.38
2864.035	68.38
2877.613	60.38
2891.145	52.38
2904.631	32.38
2918.073	34.38
2931.469	25.38
2944.821	22.38
2958.128	11.38
2971.39	3.38
2984.609	3.38
2997.784	8.38
3010.915	-2.62
3024.002	-10.62
3037.046	-9.62
3050.048	-20.62
3063.006	-27.62
3075.922	-25.62
3088.795	-24.62
3101.627	-21.62
3114.416	-33.62
3127.163	-34.62
3139.869	-35.62
3152.533	-36.62
3165.157	-41.62
3177.739	-46.62
3190.28	-49.62
3202.781	-55.62
3215.241	-55.62
3227.661	-66.62
3240.041	-63.62
3252.382	-65.62
3264.682	-70.62
3276.943	-69.62
3289.165	-67.62
3301.348	-75.62
3313.492	-75.62
3325.597	-82.62
3337.663	-87.62
3349.691	-83.62
3361.681	-81.62
3373.633	-84.62
3385.547	-84.62
3397.424	-85.62
3409.263	-82.62
3421.065	-88.62
3432.829	-88.62
3444.557	-89.62
3456.247	-96.62
3467.902	-99.62
3479.519	-95.62
3491.101	-94.62
3502.646	-90.62
3514.155	-90.62
3525.629	-92.62
3537.067	-93.62
3548.469	-97.62
3559.837	-92.62
3571.169	-97.62
3582.466	-92.62
3593.728	-97.62
3604.956	-101.62
3616.149	-110.62
3627.307	-105.62
3638.432	-103.62
3649.523	-110.62
3660.579	-105.62
3671.602	-105.62
3682.591	-109.62
3693.547	-105.62
3704.47	-105.62
3715.359	-105.62
3726.216	-109.62
3737.039	-108.62
3747.83	-106.62
3758.589	-101.62
3769.315	-109.62
3780.008	-112.62
3790.67	-103.62
3801.299	-104.62
3811.897	-110.62
3822.463	-108.62
3832.998	-104.62
3843.501	-109.62
3853.973	-110.62
3864.414	-108.62
3874.823	-64.62
3885.202	69.38
3895.55	-85.62
3905.868	-104.62
3916.155	-110.62
3926.411	-104.62
3936.638	-110.62
3946.834	-107.62
3957	-106.62
3967.137	-102.62
3977.244	-105.62
3987.321	-104.62
3997.369	-105.62
4007.388	-104.62
4017.377	-106.62
4027.338	-106.62
4037.269	-106.62
4047.172	-105.62
4057.046	-105.62
4066.891	-110.62
4076.708	-109.62
4086.497	-109.62
4096.257	-109.62
4105.989	35.38
4115.694	19.38
4125.37	-107.62
4135.019	-109.62
4142.237	-111.62

File: EC 12 1_RamanShift_2.txt
Data from EC 12 1_RamanShift_2.txt Node

Date: Tue Aug 29 12:13:07 IDT 2017
User: aro
Spectrometer: QEPB0276
Trigger mode: 0
Integration Time (sec): 3.000000E1
Scans to average: 1
Electric dark correction enabled: true
Nonlinearity correction enabled: false
Boxcar width: 0
XAxis mode: Raman Shifts
Number of Pixels in Spectrum: 1044
>>>>>Begin Spectral Data<<<<<
160.701	30.5
184.826	613.5
208.845	2777.5
232.758	2979.5
256.565	3173.5
280.267	3339.5
303.865	3487.5
327.359	3581.5
350.751	3700.5
374.04	3908.5
397.228	3962.5
420.315	5347.5
443.302	3989.5
466.189	3760.5
488.978	3642.5
511.668	3037.5
534.261	2517.5
556.756	2371.5
579.155	2344.5
601.459	2292.5
623.667	2191.5
645.781	2560.5
667.8	2141.5
689.726	2042.5
711.56	1966.5
733.301	1974.5
754.951	2088.5
776.509	2044.5
797.977	2114.5
819.355	2045.5
840.644	1951.5
861.844	1871.5
882.955	1772.5
903.979	1712.5
924.916	1728.5
945.766	1718.5
966.529	1681.5
987.208	1604.5
1007.801	1653.5
1028.309	1697.5
1048.734	1685.5
1069.075	1654.5
1089.333	1638.5
1109.509	1609.5
1129.602	1500.5
1149.614	1505.5
1169.545	1518.5
1189.395	1503.5
1209.165	1492.5
1228.856	1503.5
1248.467	1481.5
1268	1374.5
1287.455	1338.5
1306.832	1368.5
1326.132	1336.5
1345.354	1236.5
1364.501	1230.5
1383.572	1223.5
1402.567	1185.5
1421.487	1152.5
1440.333	1171.5
1459.104	1153.5
1477.802	1085.5
1496.426	1093.5
1514.978	1136.5
1533.457	1129.5
1551.864	1072.5
1570.199	1022.5
1588.464	1030.5
1606.657	970.5
1624.78	937.5
1642.834	937.5
1660.817	956.5
1678.732	919.5
1696.577	887.5
1714.355	906.5
1732.064	855.5
1749.705	801.5
1767.28	738.5
1784.787	714.5
1802.228	746.5
1819.603	720.5
1836.913	687.5
1854.156	669.5
1871.335	685.5
1888.449	676.5
1905.499	650.5
1922.485	667.5
1939.408	681.5
1956.267	655.5
1973.063	611.5
1989.797	562.5
2006.469	556.5
2023.078	528.5
2039.627	505.5
2056.114	493.5
2072.54	516.5
2088.906	514.5
2105.211	501.5
2121.457	478.5
2137.643	462.5
2153.77	451.5
2169.838	423.5
2185.848	405.5
2201.799	394.5
2217.693	389.5
2233.529	385.5
2249.307	357.5
2265.029	337.5
2280.694	334.5
2296.302	321.5
2311.854	313.5
2327.351	314.5
2342.792	287.5
2358.178	283.5
2373.508	287.5
2388.785	286.5
2404.007	283.5
2419.174	271.5
2434.289	268.5
2449.349	253.5
2464.356	232.5
2479.311	228.5
2494.213	226.5
2509.062	226.5
2523.859	219.5
2538.605	213.5
2553.299	219.5
2567.941	209.5
2582.533	199.5
2597.073	195.5
2611.564	184.5
2626.004	165.5
2640.394	161.5
2654.734	145.5
2669.025	134.5
2683.266	130.5
2697.458	119.5
2711.602	101.5
2725.697	87.5
2739.744	93.5
2753.743	84.5
2767.695	97.5
2781.598	79.5
2795.455	80.5
2809.264	81.5
2823.026	79.5
2836.742	82.5
2850.412	72.5
2864.035	67.5
2877.613	58.5
2891.145	51.5
2904.631	40.5
2918.073	32.5
2931.469	27.5
2944.821	21.5
2958.128	12.5
2971.39	8.5
2984.609	3.5
2997.784	12.5
3010.915	3.5
3024.002	-4.5
3037.046	-9.5
3050.048	-14.5
3063.006	-25.5
3075.922	-15.5
3088.795	-20.5
3101.627	-21.5
3114.416	-21.5
3127.163	-25.5
3139.869	-33.5
3152.533	-35.5
3165.157	-43.5
3177.739	-43.5
3190.28	-51.5
3202.781	-51.5
3215.241	-56.5
3227.661	-60.5
3240.041	-56.5
3252.382	-63.5
3264.682	-61.5
3276.943	-61.5
3289.165	-65.5
3301.348	-65.5
3313.492	-68.5
3325.597	-76.5
3337.663	-74.5
3349.691	-77.5
3361.681	-73.5
3373.633	-72.5
3385.547	-81.5
3397.424	-78.5
3409.263	-79.5
3421.065	-78.5
3432.829	-78.5
3444.557	-80.5
3456.247	-82.5
3467.902	-89.5
3479.519	-84.5
3491.101	-83.5
3502.646	-84.5
3514.155	-82.5
3525.629	-93.5
3537.067	-91.5
3548.469	-93.5
3559.837	-86.5
3571.169	-96.5
3582.466	-89.5
3593.728	-87.5
3604.956	-95.5
3616.149	-100.5
3627.307	-99.5
3638.432	-90.5
3649.523	-98.5
3660.579	-97.5
3671.602	-95.5
3682.591	-96.5
3693.547	-99.5
3704.47	-101.5
3715.359	-102.5
3726.216	-107.5
3737.039	-99.5
3747.83	-100.5
3758.589	-100.5
3769.315	-101.5
3780.008	-110.5
3790.67	-99.5
3801.299	-102.5
3811.897	-102.5
3822.463	-99.5
3832.998	-100.5
3843.501	-100.5
3853.973	-97.5
3864.414	-98.5
3874.823	-62.5
3885.202	70.5
3895.55	-84.5
3905.868	-92.5
3916.155	-97.5
3926.411	-98.5
3936.638	-105.5
3946.834	-95.5
3957	-95.5
3967.137	-99.5
3977.244	-99.5
3987.321	-100.5
3997.369	-99.5
4007.388	-93.5
4017.377	-97.5
4027.338	-95.5
4037.269	-101.5
4047.172	-101.5
4057.046	-102.5
4066.891	-103.5
4076.708	-101.5
4086.497	-101.5
4096.257	-102.5
4105.989	32.5
4115.694	20.5
4125.37	-98.5
4135.019	-102.5
4142.237	-107.5