Folder: Water/Data/Raman/2017-08-29 - Alluminum 2/Aug 29 2017 - Aluminum 2 (part 8)

File: EC 12 5_RamanShift_1.txt
Data from EC 12 5_RamanShift_1.txt Node

Date: Tue Aug 29 12:53:37 IDT 2017
User: aro
Spectrometer: QEPB0276
Trigger mode: 0
Integration Time (sec): 3.000000E1
Scans to average: 1
Electric dark correction enabled: true
Nonlinearity correction enabled: false
Boxcar width: 0
XAxis mode: Raman Shifts
Number of Pixels in Spectrum: 1044
>>>>>Begin Spectral Data<<<<<
160.701	20.88
184.826	554.88
208.845	2557.88
232.758	2826.88
256.565	3037.88
280.267	3209.88
303.865	3403.88
327.359	3492.88
350.751	3541.88
374.04	3721.88
397.228	3730.88
420.315	4844.88
443.302	3836.88
466.189	3656.88
488.978	3569.88
511.668	3116.88
534.261	2689.88
556.756	2564.88
579.155	2537.88
601.459	2481.88
623.667	2437.88
645.781	2663.88
667.8	2380.88
689.726	2270.88
711.56	2230.88
733.301	2267.88
754.951	2378.88
776.509	2325.88
797.977	2375.88
819.355	2302.88
840.644	2285.88
861.844	2208.88
882.955	2143.88
903.979	2079.88
924.916	2077.88
945.766	2099.88
966.529	2038.88
987.208	1968.88
1007.801	2024.88
1028.309	2063.88
1048.734	2034.88
1069.075	2005.88
1089.333	2006.88
1109.509	1991.88
1129.602	1886.88
1149.614	1883.88
1169.545	1922.88
1189.395	1848.88
1209.165	1843.88
1228.856	1893.88
1248.467	1866.88
1268	1745.88
1287.455	1702.88
1306.832	1739.88
1326.132	1680.88
1345.354	1570.88
1364.501	1533.88
1383.572	1610.88
1402.567	1524.88
1421.487	1458.88
1440.333	1475.88
1459.104	1465.88
1477.802	1379.88
1496.426	1362.88
1514.978	1445.88
1533.457	1440.88
1551.864	1399.88
1570.199	1333.88
1588.464	1314.88
1606.657	1239.88
1624.78	1193.88
1642.834	1192.88
1660.817	1218.88
1678.732	1167.88
1696.577	1105.88
1714.355	1173.88
1732.064	1127.88
1749.705	1039.88
1767.28	947.88
1784.787	905.88
1802.228	986.88
1819.603	937.88
1836.913	903.88
1854.156	883.88
1871.335	886.88
1888.449	877.88
1905.499	843.88
1922.485	864.88
1939.408	896.88
1956.267	874.88
1973.063	814.88
1989.797	752.88
2006.469	734.88
2023.078	720.88
2039.627	681.88
2056.114	655.88
2072.54	667.88
2088.906	695.88
2105.211	680.88
2121.457	652.88
2137.643	633.88
2153.77	619.88
2169.838	592.88
2185.848	565.88
2201.799	538.88
2217.693	536.88
2233.529	537.88
2249.307	516.88
2265.029	506.88
2280.694	477.88
2296.302	459.88
2311.854	444.88
2327.351	444.88
2342.792	419.88
2358.178	427.88
2373.508	417.88
2388.785	416.88
2404.007	409.88
2419.174	399.88
2434.289	397.88
2449.349	377.88
2464.356	353.88
2479.311	341.88
2494.213	350.88
2509.062	346.88
2523.859	338.88
2538.605	329.88
2553.299	332.88
2567.941	327.88
2582.533	327.88
2597.073	310.88
2611.564	300.88
2626.004	284.88
2640.394	272.88
2654.734	255.88
2669.025	235.88
2683.266	223.88
2697.458	206.88
2711.602	181.88
2725.697	165.88
2739.744	167.88
2753.743	173.88
2767.695	189.88
2781.598	172.88
2795.455	167.88
2809.264	153.88
2823.026	155.88
2836.742	153.88
2850.412	140.88
2864.035	144.88
2877.613	140.88
2891.145	126.88
2904.631	120.88
2918.073	113.88
2931.469	101.88
2944.821	90.88
2958.128	80.88
2971.39	64.88
2984.609	57.88
2997.784	66.88
3010.915	57.88
3024.002	43.88
3037.046	32.88
3050.048	29.88
3063.006	27.88
3075.922	20.88
3088.795	15.88
3101.627	17.88
3114.416	14.88
3127.163	13.88
3139.869	6.88
3152.533	0.88
3165.157	-4.12
3177.739	0.88
3190.28	-14.12
3202.781	-18.12
3215.241	-20.12
3227.661	-30.12
3240.041	-30.12
3252.382	-28.12
3264.682	-30.12
3276.943	-40.12
3289.165	-41.12
3301.348	-41.12
3313.492	-43.12
3325.597	-45.12
3337.663	-55.12
3349.691	-52.12
3361.681	-52.12
3373.633	-52.12
3385.547	-58.12
3397.424	-54.12
3409.263	-56.12
3421.065	-59.12
3432.829	-62.12
3444.557	-59.12
3456.247	-67.12
3467.902	-69.12
3479.519	-65.12
3491.101	-69.12
3502.646	-68.12
3514.155	-68.12
3525.629	-76.12
3537.067	-70.12
3548.469	-74.12
3559.837	-68.12
3571.169	-75.12
3582.466	-75.12
3593.728	-70.12
3604.956	-77.12
3616.149	-82.12
3627.307	-82.12
3638.432	-77.12
3649.523	-86.12
3660.579	-81.12
3671.602	-82.12
3682.591	-82.12
3693.547	-78.12
3704.47	-89.12
3715.359	-78.12
3726.216	-86.12
3737.039	-86.12
3747.83	-83.12
3758.589	-84.12
3769.315	-88.12
3780.008	-92.12
3790.67	-85.12
3801.299	-83.12
3811.897	-84.12
3822.463	-82.12
3832.998	-80.12
3843.501	-83.12
3853.973	-82.12
3864.414	-77.12
3874.823	-59.12
3885.202	9.88
3895.55	-79.12
3905.868	-90.12
3916.155	-90.12
3926.411	-89.12
3936.638	-90.12
3946.834	-86.12
3957	-87.12
3967.137	-82.12
3977.244	-87.12
3987.321	-84.12
3997.369	-83.12
4007.388	-80.12
4017.377	-81.12
4027.338	-81.12
4037.269	-82.12
4047.172	-86.12
4057.046	-83.12
4066.891	-87.12
4076.708	-89.12
4086.497	-88.12
4096.257	-89.12
4105.989	24.88
4115.694	10.88
4125.37	-92.12
4135.019	-92.12
4142.237	-97.12

File: EC 12 5_RamanShift_2.txt
Data from EC 12 5_RamanShift_2.txt Node

Date: Tue Aug 29 12:54:07 IDT 2017
User: aro
Spectrometer: QEPB0276
Trigger mode: 0
Integration Time (sec): 3.000000E1
Scans to average: 1
Electric dark correction enabled: true
Nonlinearity correction enabled: false
Boxcar width: 0
XAxis mode: Raman Shifts
Number of Pixels in Spectrum: 1044
>>>>>Begin Spectral Data<<<<<
160.701	19.62
184.826	497.62
208.845	2281.62
232.758	2486.62
256.565	2702.62
280.267	2854.62
303.865	3038.62
327.359	3100.62
350.751	3165.62
374.04	3343.62
397.228	3381.62
420.315	4457.62
443.302	3442.62
466.189	3231.62
488.978	3167.62
511.668	2725.62
534.261	2281.62
556.756	2178.62
579.155	2147.62
601.459	2143.62
623.667	2070.62
645.781	2335.62
667.8	2025.62
689.726	1948.62
711.56	1890.62
733.301	1906.62
754.951	2025.62
776.509	1989.62
797.977	2060.62
819.355	1990.62
840.644	1971.62
861.844	1902.62
882.955	1831.62
903.979	1778.62
924.916	1787.62
945.766	1781.62
966.529	1742.62
987.208	1697.62
1007.801	1732.62
1028.309	1771.62
1048.734	1758.62
1069.075	1733.62
1089.333	1750.62
1109.509	1712.62
1129.602	1617.62
1149.614	1622.62
1169.545	1656.62
1189.395	1608.62
1209.165	1618.62
1228.856	1655.62
1248.467	1624.62
1268	1515.62
1287.455	1505.62
1306.832	1511.62
1326.132	1487.62
1345.354	1383.62
1364.501	1334.62
1383.572	1411.62
1402.567	1346.62
1421.487	1296.62
1440.333	1303.62
1459.104	1293.62
1477.802	1212.62
1496.426	1223.62
1514.978	1278.62
1533.457	1284.62
1551.864	1236.62
1570.199	1205.62
1588.464	1174.62
1606.657	1116.62
1624.78	1062.62
1642.834	1059.62
1660.817	1081.62
1678.732	1048.62
1696.577	986.62
1714.355	1048.62
1732.064	999.62
1749.705	933.62
1767.28	834.62
1784.787	819.62
1802.228	866.62
1819.603	858.62
1836.913	809.62
1854.156	801.62
1871.335	788.62
1888.449	776.62
1905.499	761.62
1922.485	781.62
1939.408	815.62
1956.267	805.62
1973.063	742.62
1989.797	697.62
2006.469	677.62
2023.078	653.62
2039.627	606.62
2056.114	603.62
2072.54	612.62
2088.906	622.62
2105.211	615.62
2121.457	596.62
2137.643	576.62
2153.77	562.62
2169.838	530.62
2185.848	513.62
2201.799	496.62
2217.693	501.62
2233.529	484.62
2249.307	466.62
2265.029	454.62
2280.694	443.62
2296.302	425.62
2311.854	411.62
2327.351	416.62
2342.792	397.62
2358.178	394.62
2373.508	397.62
2388.785	400.62
2404.007	382.62
2419.174	364.62
2434.289	366.62
2449.349	341.62
2464.356	329.62
2479.311	330.62
2494.213	327.62
2509.062	323.62
2523.859	313.62
2538.605	312.62
2553.299	312.62
2567.941	310.62
2582.533	308.62
2597.073	293.62
2611.564	278.62
2626.004	267.62
2640.394	258.62
2654.734	232.62
2669.025	217.62
2683.266	215.62
2697.458	187.62
2711.602	168.62
2725.697	158.62
2739.744	160.62
2753.743	172.62
2767.695	181.62
2781.598	164.62
2795.455	152.62
2809.264	150.62
2823.026	145.62
2836.742	143.62
2850.412	137.62
2864.035	147.62
2877.613	131.62
2891.145	122.62
2904.631	111.62
2918.073	96.62
2931.469	102.62
2944.821	84.62
2958.128	74.62
2971.39	64.62
2984.609	63.62
2997.784	66.62
3010.915	60.62
3024.002	44.62
3037.046	39.62
3050.048	32.62
3063.006	28.62
3075.922	23.62
3088.795	18.62
3101.627	25.62
3114.416	17.62
3127.163	14.62
3139.869	14.62
3152.533	6.62
3165.157	3.62
3177.739	-2.38
3190.28	-8.38
3202.781	-15.38
3215.241	-23.38
3227.661	-24.38
3240.041	-22.38
3252.382	-25.38
3264.682	-23.38
3276.943	-30.38
3289.165	-31.38
3301.348	-38.38
3313.492	-39.38
3325.597	-39.38
3337.663	-50.38
3349.691	-45.38
3361.681	-46.38
3373.633	-41.38
3385.547	-48.38
3397.424	-42.38
3409.263	-55.38
3421.065	-52.38
3432.829	-52.38
3444.557	-52.38
3456.247	-61.38
3467.902	-64.38
3479.519	-58.38
3491.101	-64.38
3502.646	-63.38
3514.155	-61.38
3525.629	-69.38
3537.067	-68.38
3548.469	-69.38
3559.837	-68.38
3571.169	-73.38
3582.466	-67.38
3593.728	-68.38
3604.956	-73.38
3616.149	-76.38
3627.307	-75.38
3638.432	-74.38
3649.523	-71.38
3660.579	-72.38
3671.602	-73.38
3682.591	-73.38
3693.547	-74.38
3704.47	-77.38
3715.359	-73.38
3726.216	-80.38
3737.039	-76.38
3747.83	-78.38
3758.589	-71.38
3769.315	-77.38
3780.008	-88.38
3790.67	-76.38
3801.299	-74.38
3811.897	-83.38
3822.463	-78.38
3832.998	-77.38
3843.501	-74.38
3853.973	-72.38
3864.414	-75.38
3874.823	-51.38
3885.202	3.62
3895.55	-75.38
3905.868	-85.38
3916.155	-83.38
3926.411	-85.38
3936.638	-87.38
3946.834	-83.38
3957	-82.38
3967.137	-81.38
3977.244	-80.38
3987.321	-74.38
3997.369	-81.38
4007.388	-72.38
4017.377	-78.38
4027.338	-71.38
4037.269	-77.38
4047.172	-73.38
4057.046	-78.38
4066.891	-84.38
4076.708	-79.38
4086.497	-77.38
4096.257	-83.38
4105.989	23.62
4115.694	16.62
4125.37	-81.38
4135.019	-82.38
4142.237	-87.38

File: EC 12 5_RamanShift_3.txt
Data from EC 12 5_RamanShift_3.txt Node

Date: Tue Aug 29 12:54:37 IDT 2017
User: aro
Spectrometer: QEPB0276
Trigger mode: 0
Integration Time (sec): 3.000000E1
Scans to average: 1
Electric dark correction enabled: true
Nonlinearity correction enabled: false
Boxcar width: 0
XAxis mode: Raman Shifts
Number of Pixels in Spectrum: 1044
>>>>>Begin Spectral Data<<<<<
160.701	25.12
184.826	483.12
208.845	2135.12
232.758	2358.12
256.565	2537.12
280.267	2703.12
303.865	2866.12
327.359	2917.12
350.751	3005.12
374.04	3177.12
397.228	3216.12
420.315	4305.12
443.302	3290.12
466.189	3118.12
488.978	3006.12
511.668	2552.12
534.261	2156.12
556.756	2026.12
579.155	2012.12
601.459	1992.12
623.667	1917.12
645.781	2198.12
667.8	1879.12
689.726	1799.12
711.56	1764.12
733.301	1772.12
754.951	1891.12
776.509	1855.12
797.977	1923.12
819.355	1880.12
840.644	1837.12
861.844	1767.12
882.955	1702.12
903.979	1658.12
924.916	1669.12
945.766	1673.12
966.529	1632.12
987.208	1573.12
1007.801	1628.12
1028.309	1661.12
1048.734	1654.12
1069.075	1629.12
1089.333	1635.12
1109.509	1619.12
1129.602	1525.12
1149.614	1536.12
1169.545	1549.12
1189.395	1499.12
1209.165	1534.12
1228.856	1552.12
1248.467	1525.12
1268	1415.12
1287.455	1385.12
1306.832	1423.12
1326.132	1393.12
1345.354	1269.12
1364.501	1268.12
1383.572	1310.12
1402.567	1256.12
1421.487	1201.12
1440.333	1233.12
1459.104	1217.12
1477.802	1128.12
1496.426	1143.12
1514.978	1203.12
1533.457	1212.12
1551.864	1159.12
1570.199	1123.12
1588.464	1112.12
1606.657	1052.12
1624.78	994.12
1642.834	1005.12
1660.817	1007.12
1678.732	990.12
1696.577	947.12
1714.355	990.12
1732.064	957.12
1749.705	873.12
1767.28	802.12
1784.787	784.12
1802.228	841.12
1819.603	819.12
1836.913	763.12
1854.156	750.12
1871.335	739.12
1888.449	755.12
1905.499	728.12
1922.485	746.12
1939.408	773.12
1956.267	763.12
1973.063	713.12
1989.797	655.12
2006.469	636.12
2023.078	624.12
2039.627	574.12
2056.114	567.12
2072.54	592.12
2088.906	609.12
2105.211	606.12
2121.457	575.12
2137.643	551.12
2153.77	551.12
2169.838	501.12
2185.848	480.12
2201.799	473.12
2217.693	479.12
2233.529	475.12
2249.307	455.12
2265.029	444.12
2280.694	419.12
2296.302	404.12
2311.854	401.12
2327.351	407.12
2342.792	371.12
2358.178	366.12
2373.508	384.12
2388.785	375.12
2404.007	363.12
2419.174	361.12
2434.289	349.12
2449.349	340.12
2464.356	313.12
2479.311	310.12
2494.213	303.12
2509.062	310.12
2523.859	303.12
2538.605	303.12
2553.299	306.12
2567.941	307.12
2582.533	284.12
2597.073	283.12
2611.564	275.12
2626.004	254.12
2640.394	244.12
2654.734	230.12
2669.025	217.12
2683.266	208.12
2697.458	188.12
2711.602	172.12
2725.697	151.12
2739.744	148.12
2753.743	161.12
2767.695	167.12
2781.598	150.12
2795.455	147.12
2809.264	143.12
2823.026	145.12
2836.742	141.12
2850.412	143.12
2864.035	138.12
2877.613	129.12
2891.145	122.12
2904.631	109.12
2918.073	97.12
2931.469	95.12
2944.821	89.12
2958.128	75.12
2971.39	63.12
2984.609	59.12
2997.784	61.12
3010.915	55.12
3024.002	52.12
3037.046	39.12
3050.048	30.12
3063.006	21.12
3075.922	29.12
3088.795	19.12
3101.627	23.12
3114.416	20.12
3127.163	17.12
3139.869	7.12
3152.533	2.12
3165.157	-5.88
3177.739	-7.88
3190.28	-7.88
3202.781	-13.88
3215.241	-21.88
3227.661	-24.88
3240.041	-20.88
3252.382	-23.88
3264.682	-19.88
3276.943	-30.88
3289.165	-26.88
3301.348	-39.88
3313.492	-36.88
3325.597	-43.88
3337.663	-44.88
3349.691	-43.88
3361.681	-43.88
3373.633	-40.88
3385.547	-46.88
3397.424	-44.88
3409.263	-51.88
3421.065	-47.88
3432.829	-54.88
3444.557	-53.88
3456.247	-60.88
3467.902	-62.88
3479.519	-57.88
3491.101	-64.88
3502.646	-65.88
3514.155	-56.88
3525.629	-66.88
3537.067	-65.88
3548.469	-69.88
3559.837	-59.88
3571.169	-65.88
3582.466	-60.88
3593.728	-67.88
3604.956	-67.88
3616.149	-73.88
3627.307	-72.88
3638.432	-68.88
3649.523	-75.88
3660.579	-71.88
3671.602	-72.88
3682.591	-74.88
3693.547	-68.88
3704.47	-75.88
3715.359	-74.88
3726.216	-78.88
3737.039	-78.88
3747.83	-77.88
3758.589	-73.88
3769.315	-76.88
3780.008	-80.88
3790.67	-77.88
3801.299	-78.88
3811.897	-79.88
3822.463	-74.88
3832.998	-75.88
3843.501	-74.88
3853.973	-77.88
3864.414	-73.88
3874.823	-53.88
3885.202	10.12
3895.55	-63.88
3905.868	-77.88
3916.155	-83.88
3926.411	-78.88
3936.638	-86.88
3946.834	-79.88
3957	-79.88
3967.137	-77.88
3977.244	-81.88
3987.321	-78.88
3997.369	-76.88
4007.388	-77.88
4017.377	-78.88
4027.338	-75.88
4037.269	-80.88
4047.172	-76.88
4057.046	-75.88
4066.891	-88.88
4076.708	-82.88
4086.497	-81.88
4096.257	-80.88
4105.989	27.12
4115.694	11.12
4125.37	-82.88
4135.019	-82.88
4142.237	-87.88

File: EC 110 1_RamanShift_1.txt
Data from EC 110 1_RamanShift_1.txt Node

Date: Tue Aug 29 12:08:07 IDT 2017
User: aro
Spectrometer: QEPB0276
Trigger mode: 0
Integration Time (sec): 3.000000E1
Scans to average: 1
Electric dark correction enabled: true
Nonlinearity correction enabled: false
Boxcar width: 0
XAxis mode: Raman Shifts
Number of Pixels in Spectrum: 1044
>>>>>Begin Spectral Data<<<<<
160.701	40.38
184.826	505.38
208.845	2154.38
232.758	2316.38
256.565	2493.38
280.267	2676.38
303.865	2887.38
327.359	3030.38
350.751	3171.38
374.04	3512.38
397.228	3540.38
420.315	5669.38
443.302	3681.38
466.189	3330.38
488.978	3161.38
511.668	2375.38
534.261	1594.38
556.756	1383.38
579.155	1341.38
601.459	1301.38
623.667	1225.38
645.781	1777.38
667.8	1153.38
689.726	1031.38
711.56	987.38
733.301	988.38
754.951	1212.38
776.509	1124.38
797.977	1244.38
819.355	1182.38
840.644	1078.38
861.844	940.38
882.955	838.38
903.979	821.38
924.916	798.38
945.766	796.38
966.529	758.38
987.208	754.38
1007.801	778.38
1028.309	805.38
1048.734	837.38
1069.075	845.38
1089.333	823.38
1109.509	785.38
1129.602	705.38
1149.614	715.38
1169.545	749.38
1189.395	742.38
1209.165	738.38
1228.856	746.38
1248.467	718.38
1268	665.38
1287.455	627.38
1306.832	648.38
1326.132	634.38
1345.354	602.38
1364.501	596.38
1383.572	593.38
1402.567	557.38
1421.487	541.38
1440.333	549.38
1459.104	559.38
1477.802	534.38
1496.426	555.38
1514.978	593.38
1533.457	564.38
1551.864	543.38
1570.199	514.38
1588.464	505.38
1606.657	487.38
1624.78	463.38
1642.834	484.38
1660.817	504.38
1678.732	474.38
1696.577	477.38
1714.355	469.38
1732.064	441.38
1749.705	413.38
1767.28	376.38
1784.787	374.38
1802.228	386.38
1819.603	366.38
1836.913	342.38
1854.156	340.38
1871.335	353.38
1888.449	335.38
1905.499	338.38
1922.485	353.38
1939.408	362.38
1956.267	339.38
1973.063	309.38
1989.797	285.38
2006.469	277.38
2023.078	272.38
2039.627	256.38
2056.114	256.38
2072.54	263.38
2088.906	267.38
2105.211	256.38
2121.457	244.38
2137.643	216.38
2153.77	224.38
2169.838	201.38
2185.848	194.38
2201.799	192.38
2217.693	184.38
2233.529	199.38
2249.307	176.38
2265.029	173.38
2280.694	157.38
2296.302	149.38
2311.854	138.38
2327.351	152.38
2342.792	132.38
2358.178	126.38
2373.508	128.38
2388.785	116.38
2404.007	113.38
2419.174	114.38
2434.289	121.38
2449.349	96.38
2464.356	100.38
2479.311	94.38
2494.213	89.38
2509.062	93.38
2523.859	82.38
2538.605	86.38
2553.299	90.38
2567.941	78.38
2582.533	70.38
2597.073	74.38
2611.564	67.38
2626.004	57.38
2640.394	54.38
2654.734	44.38
2669.025	43.38
2683.266	42.38
2697.458	33.38
2711.602	22.38
2725.697	22.38
2739.744	25.38
2753.743	27.38
2767.695	27.38
2781.598	21.38
2795.455	19.38
2809.264	6.38
2823.026	16.38
2836.742	13.38
2850.412	3.38
2864.035	6.38
2877.613	-4.62
2891.145	-2.62
2904.631	-8.62
2918.073	-18.62
2931.469	-18.62
2944.821	-17.62
2958.128	-21.62
2971.39	-24.62
2984.609	-32.62
2997.784	-25.62
3010.915	-33.62
3024.002	-34.62
3037.046	-38.62
3050.048	-50.62
3063.006	-51.62
3075.922	-40.62
3088.795	-47.62
3101.627	-45.62
3114.416	-46.62
3127.163	-49.62
3139.869	-48.62
3152.533	-52.62
3165.157	-57.62
3177.739	-58.62
3190.28	-59.62
3202.781	-64.62
3215.241	-72.62
3227.661	-65.62
3240.041	-69.62
3252.382	-71.62
3264.682	-67.62
3276.943	-72.62
3289.165	-71.62
3301.348	-71.62
3313.492	-73.62
3325.597	-78.62
3337.663	-83.62
3349.691	-75.62
3361.681	-81.62
3373.633	-75.62
3385.547	-78.62
3397.424	-74.62
3409.263	-85.62
3421.065	-83.62
3432.829	-78.62
3444.557	-76.62
3456.247	-83.62
3467.902	-90.62
3479.519	-82.62
3491.101	-87.62
3502.646	-87.62
3514.155	-84.62
3525.629	-88.62
3537.067	-93.62
3548.469	-89.62
3559.837	-87.62
3571.169	-88.62
3582.466	-88.62
3593.728	-87.62
3604.956	-85.62
3616.149	-96.62
3627.307	-89.62
3638.432	-88.62
3649.523	-93.62
3660.579	-91.62
3671.602	-95.62
3682.591	-96.62
3693.547	-94.62
3704.47	-97.62
3715.359	-96.62
3726.216	-96.62
3737.039	-101.62
3747.83	-101.62
3758.589	-96.62
3769.315	-97.62
3780.008	-103.62
3790.67	-94.62
3801.299	-94.62
3811.897	-93.62
3822.463	-93.62
3832.998	-88.62
3843.501	-91.62
3853.973	-85.62
3864.414	-92.62
3874.823	-51.62
3885.202	96.38
3895.55	-71.62
3905.868	-96.62
3916.155	-97.62
3926.411	-97.62
3936.638	-102.62
3946.834	-93.62
3957	-92.62
3967.137	-96.62
3977.244	-91.62
3987.321	-94.62
3997.369	-95.62
4007.388	-91.62
4017.377	-89.62
4027.338	-89.62
4037.269	-97.62
4047.172	-94.62
4057.046	-92.62
4066.891	-96.62
4076.708	-95.62
4086.497	-94.62
4096.257	-99.62
4105.989	56.38
4115.694	38.38
4125.37	-95.62
4135.019	-99.62
4142.237	-102.62

File: EC 110 1_RamanShift_2.txt
Data from EC 110 1_RamanShift_2.txt Node

Date: Tue Aug 29 12:08:37 IDT 2017
User: aro
Spectrometer: QEPB0276
Trigger mode: 0
Integration Time (sec): 3.000000E1
Scans to average: 1
Electric dark correction enabled: true
Nonlinearity correction enabled: false
Boxcar width: 0
XAxis mode: Raman Shifts
Number of Pixels in Spectrum: 1044
>>>>>Begin Spectral Data<<<<<
160.701	37.88
184.826	480.88
208.845	2090.88
232.758	2261.88
256.565	2442.88
280.267	2616.88
303.865	2811.88
327.359	2978.88
350.751	3127.88
374.04	3440.88
397.228	3497.88
420.315	5588.88
443.302	3631.88
466.189	3234.88
488.978	3087.88
511.668	2303.88
534.261	1542.88
556.756	1329.88
579.155	1303.88
601.459	1267.88
623.667	1191.88
645.781	1737.88
667.8	1104.88
689.726	970.88
711.56	935.88
733.301	951.88
754.951	1176.88
776.509	1068.88
797.977	1205.88
819.355	1128.88
840.644	1043.88
861.844	927.88
882.955	811.88
903.979	777.88
924.916	761.88
945.766	762.88
966.529	740.88
987.208	722.88
1007.801	736.88
1028.309	771.88
1048.734	811.88
1069.075	809.88
1089.333	786.88
1109.509	726.88
1129.602	681.88
1149.614	686.88
1169.545	725.88
1189.395	723.88
1209.165	713.88
1228.856	725.88
1248.467	707.88
1268	630.88
1287.455	601.88
1306.832	625.88
1326.132	604.88
1345.354	594.88
1364.501	579.88
1383.572	571.88
1402.567	537.88
1421.487	525.88
1440.333	540.88
1459.104	551.88
1477.802	520.88
1496.426	523.88
1514.978	563.88
1533.457	549.88
1551.864	507.88
1570.199	497.88
1588.464	484.88
1606.657	470.88
1624.78	456.88
1642.834	465.88
1660.817	478.88
1678.732	466.88
1696.577	479.88
1714.355	446.88
1732.064	423.88
1749.705	383.88
1767.28	366.88
1784.787	363.88
1802.228	371.88
1819.603	359.88
1836.913	334.88
1854.156	331.88
1871.335	328.88
1888.449	331.88
1905.499	311.88
1922.485	339.88
1939.408	339.88
1956.267	329.88
1973.063	299.88
1989.797	266.88
2006.469	271.88
2023.078	265.88
2039.627	244.88
2056.114	245.88
2072.54	251.88
2088.906	259.88
2105.211	247.88
2121.457	234.88
2137.643	212.88
2153.77	219.88
2169.838	198.88
2185.848	193.88
2201.799	179.88
2217.693	184.88
2233.529	183.88
2249.307	184.88
2265.029	167.88
2280.694	155.88
2296.302	141.88
2311.854	141.88
2327.351	138.88
2342.792	128.88
2358.178	125.88
2373.508	121.88
2388.785	119.88
2404.007	118.88
2419.174	117.88
2434.289	114.88
2449.349	93.88
2464.356	87.88
2479.311	97.88
2494.213	88.88
2509.062	92.88
2523.859	85.88
2538.605	84.88
2553.299	85.88
2567.941	88.88
2582.533	72.88
2597.073	62.88
2611.564	64.88
2626.004	57.88
2640.394	61.88
2654.734	50.88
2669.025	31.88
2683.266	43.88
2697.458	37.88
2711.602	20.88
2725.697	19.88
2739.744	19.88
2753.743	18.88
2767.695	26.88
2781.598	13.88
2795.455	15.88
2809.264	5.88
2823.026	16.88
2836.742	18.88
2850.412	6.88
2864.035	9.88
2877.613	-0.12
2891.145	-0.12
2904.631	-13.12
2918.073	-17.12
2931.469	-20.12
2944.821	-23.12
2958.128	-29.12
2971.39	-31.12
2984.609	-33.12
2997.784	-26.12
3010.915	-32.12
3024.002	-40.12
3037.046	-41.12
3050.048	-44.12
3063.006	-48.12
3075.922	-52.12
3088.795	-49.12
3101.627	-47.12
3114.416	-47.12
3127.163	-51.12
3139.869	-49.12
3152.533	-56.12
3165.157	-60.12
3177.739	-64.12
3190.28	-60.12
3202.781	-64.12
3215.241	-68.12
3227.661	-68.12
3240.041	-64.12
3252.382	-67.12
3264.682	-70.12
3276.943	-75.12
3289.165	-67.12
3301.348	-73.12
3313.492	-77.12
3325.597	-78.12
3337.663	-82.12
3349.691	-78.12
3361.681	-79.12
3373.633	-81.12
3385.547	-81.12
3397.424	-73.12
3409.263	-78.12
3421.065	-81.12
3432.829	-80.12
3444.557	-79.12
3456.247	-79.12
3467.902	-86.12
3479.519	-77.12
3491.101	-86.12
3502.646	-81.12
3514.155	-83.12
3525.629	-92.12
3537.067	-82.12
3548.469	-91.12
3559.837	-83.12
3571.169	-89.12
3582.466	-88.12
3593.728	-87.12
3604.956	-89.12
3616.149	-97.12
3627.307	-91.12
3638.432	-94.12
3649.523	-93.12
3660.579	-91.12
3671.602	-91.12
3682.591	-93.12
3693.547	-89.12
3704.47	-97.12
3715.359	-96.12
3726.216	-100.12
3737.039	-101.12
3747.83	-96.12
3758.589	-103.12
3769.315	-98.12
3780.008	-106.12
3790.67	-96.12
3801.299	-95.12
3811.897	-93.12
3822.463	-90.12
3832.998	-87.12
3843.501	-94.12
3853.973	-94.12
3864.414	-90.12
3874.823	-48.12
3885.202	99.88
3895.55	-69.12
3905.868	-92.12
3916.155	-97.12
3926.411	-100.12
3936.638	-102.12
3946.834	-94.12
3957	-91.12
3967.137	-91.12
3977.244	-98.12
3987.321	-97.12
3997.369	-94.12
4007.388	-95.12
4017.377	-94.12
4027.338	-91.12
4037.269	-96.12
4047.172	-94.12
4057.046	-91.12
4066.891	-96.12
4076.708	-94.12
4086.497	-95.12
4096.257	-98.12
4105.989	61.88
4115.694	39.88
4125.37	-91.12
4135.019	-96.12
4142.237	-101.12