Folder: Water/Data/Raman/2017-08-29 - Alluminum 2/Aug 29 2017 - Aluminum 2 (part 3)

File: EC 11 1_RamanShift_2.txt
Data from EC 11 1_RamanShift_2.txt Node

Date: Tue Aug 29 12:20:37 IDT 2017
User: aro
Spectrometer: QEPB0276
Trigger mode: 0
Integration Time (sec): 3.000000E1
Scans to average: 1
Electric dark correction enabled: true
Nonlinearity correction enabled: false
Boxcar width: 0
XAxis mode: Raman Shifts
Number of Pixels in Spectrum: 1044
>>>>>Begin Spectral Data<<<<<
160.701	9.38
184.826	1119.38
208.845	5262.38
232.758	5861.38
256.565	6253.38
280.267	6541.38
303.865	6767.38
327.359	6925.38
350.751	6969.38
374.04	7109.38
397.228	7147.38
420.315	8237.38
443.302	7131.38
466.189	6917.38
488.978	6825.38
511.668	6292.38
534.261	5811.38
556.756	5662.38
579.155	5584.38
601.459	5491.38
623.667	5360.38
645.781	5563.38
667.8	5211.38
689.726	5143.38
711.56	4989.38
733.301	4937.38
754.951	5056.38
776.509	4954.38
797.977	4985.38
819.355	4831.38
840.644	4774.38
861.844	4739.38
882.955	4626.38
903.979	4466.38
924.916	4445.38
945.766	4444.38
966.529	4318.38
987.208	4160.38
1007.801	4253.38
1028.309	4316.38
1048.734	4205.38
1069.075	4065.38
1089.333	4100.38
1109.509	4096.38
1129.602	3875.38
1149.614	3807.38
1169.545	3859.38
1189.395	3770.38
1209.165	3720.38
1228.856	3785.38
1248.467	3728.38
1268	3487.38
1287.455	3386.38
1306.832	3415.38
1326.132	3320.38
1345.354	3058.38
1364.501	3011.38
1383.572	3111.38
1402.567	3003.38
1421.487	2851.38
1440.333	2879.38
1459.104	2802.38
1477.802	2637.38
1496.426	2638.38
1514.978	2774.38
1533.457	2767.38
1551.864	2654.38
1570.199	2562.38
1588.464	2506.38
1606.657	2372.38
1624.78	2254.38
1642.834	2228.38
1660.817	2254.38
1678.732	2165.38
1696.577	2049.38
1714.355	2167.38
1732.064	2100.38
1749.705	1905.38
1767.28	1749.38
1784.787	1674.38
1802.228	1785.38
1819.603	1753.38
1836.913	1655.38
1854.156	1628.38
1871.335	1617.38
1888.449	1589.38
1905.499	1532.38
1922.485	1573.38
1939.408	1621.38
1956.267	1582.38
1973.063	1467.38
1989.797	1365.38
2006.469	1331.38
2023.078	1278.38
2039.627	1198.38
2056.114	1172.38
2072.54	1188.38
2088.906	1205.38
2105.211	1194.38
2121.457	1124.38
2137.643	1107.38
2153.77	1057.38
2169.838	1024.38
2185.848	966.38
2201.799	940.38
2217.693	933.38
2233.529	930.38
2249.307	883.38
2265.029	845.38
2280.694	802.38
2296.302	787.38
2311.854	746.38
2327.351	733.38
2342.792	698.38
2358.178	703.38
2373.508	699.38
2388.785	702.38
2404.007	682.38
2419.174	662.38
2434.289	633.38
2449.349	609.38
2464.356	578.38
2479.311	564.38
2494.213	555.38
2509.062	557.38
2523.859	547.38
2538.605	524.38
2553.299	527.38
2567.941	520.38
2582.533	505.38
2597.073	494.38
2611.564	455.38
2626.004	440.38
2640.394	416.38
2654.734	380.38
2669.025	362.38
2683.266	336.38
2697.458	300.38
2711.602	281.38
2725.697	251.38
2739.744	238.38
2753.743	251.38
2767.695	253.38
2781.598	233.38
2795.455	236.38
2809.264	220.38
2823.026	214.38
2836.742	210.38
2850.412	203.38
2864.035	194.38
2877.613	174.38
2891.145	162.38
2904.631	144.38
2918.073	129.38
2931.469	119.38
2944.821	102.38
2958.128	85.38
2971.39	76.38
2984.609	62.38
2997.784	73.38
3010.915	51.38
3024.002	42.38
3037.046	29.38
3050.048	22.38
3063.006	12.38
3075.922	12.38
3088.795	-0.62
3101.627	6.38
3114.416	-5.62
3127.163	-6.62
3139.869	-11.62
3152.533	-22.62
3165.157	-35.62
3177.739	-31.62
3190.28	-40.62
3202.781	-53.62
3215.241	-66.62
3227.661	-67.62
3240.041	-68.62
3252.382	-76.62
3264.682	-81.62
3276.943	-82.62
3289.165	-80.62
3301.348	-88.62
3313.492	-90.62
3325.597	-98.62
3337.663	-101.62
3349.691	-98.62
3361.681	-104.62
3373.633	-103.62
3385.547	-100.62
3397.424	-105.62
3409.263	-117.62
3421.065	-117.62
3432.829	-119.62
3444.557	-116.62
3456.247	-122.62
3467.902	-128.62
3479.519	-119.62
3491.101	-126.62
3502.646	-123.62
3514.155	-127.62
3525.629	-135.62
3537.067	-129.62
3548.469	-135.62
3559.837	-130.62
3571.169	-132.62
3582.466	-136.62
3593.728	-136.62
3604.956	-135.62
3616.149	-147.62
3627.307	-146.62
3638.432	-140.62
3649.523	-148.62
3660.579	-148.62
3671.602	-144.62
3682.591	-144.62
3693.547	-139.62
3704.47	-147.62
3715.359	-141.62
3726.216	-151.62
3737.039	-147.62
3747.83	-144.62
3758.589	-149.62
3769.315	-149.62
3780.008	-156.62
3790.67	-147.62
3801.299	-151.62
3811.897	-153.62
3822.463	-150.62
3832.998	-147.62
3843.501	-144.62
3853.973	-145.62
3864.414	-144.62
3874.823	-115.62
3885.202	-22.62
3895.55	-133.62
3905.868	-153.62
3916.155	-147.62
3926.411	-150.62
3936.638	-150.62
3946.834	-150.62
3957	-149.62
3967.137	-146.62
3977.244	-151.62
3987.321	-146.62
3997.369	-150.62
4007.388	-140.62
4017.377	-140.62
4027.338	-139.62
4037.269	-147.62
4047.172	-144.62
4057.046	-145.62
4066.891	-152.62
4076.708	-147.62
4086.497	-153.62
4096.257	-156.62
4105.989	-14.62
4115.694	-14.62
4125.37	-148.62
4135.019	-156.62
4142.237	-161.62

File: EC 11 1_RamanShift_3.txt
Data from EC 11 1_RamanShift_3.txt Node

Date: Tue Aug 29 12:21:07 IDT 2017
User: aro
Spectrometer: QEPB0276
Trigger mode: 0
Integration Time (sec): 3.000000E1
Scans to average: 1
Electric dark correction enabled: true
Nonlinearity correction enabled: false
Boxcar width: 0
XAxis mode: Raman Shifts
Number of Pixels in Spectrum: 1044
>>>>>Begin Spectral Data<<<<<
160.701	12.5
184.826	986.5
208.845	4670.5
232.758	5142.5
256.565	5550.5
280.267	5804.5
303.865	6036.5
327.359	6152.5
350.751	6187.5
374.04	6347.5
397.228	6383.5
420.315	7469.5
443.302	6421.5
466.189	6192.5
488.978	6061.5
511.668	5590.5
534.261	5114.5
556.756	4961.5
579.155	4919.5
601.459	4838.5
623.667	4700.5
645.781	4943.5
667.8	4584.5
689.726	4477.5
711.56	4395.5
733.301	4331.5
754.951	4415.5
776.509	4373.5
797.977	4382.5
819.355	4281.5
840.644	4203.5
861.844	4158.5
882.955	4079.5
903.979	3933.5
924.916	3925.5
945.766	3922.5
966.529	3855.5
987.208	3673.5
1007.801	3760.5
1028.309	3796.5
1048.734	3735.5
1069.075	3610.5
1089.333	3653.5
1109.509	3628.5
1129.602	3447.5
1149.614	3404.5
1169.545	3403.5
1189.395	3343.5
1209.165	3315.5
1228.856	3372.5
1248.467	3320.5
1268	3101.5
1287.455	3034.5
1306.832	3038.5
1326.132	2958.5
1345.354	2721.5
1364.501	2688.5
1383.572	2773.5
1402.567	2684.5
1421.487	2556.5
1440.333	2586.5
1459.104	2548.5
1477.802	2377.5
1496.426	2337.5
1514.978	2482.5
1533.457	2486.5
1551.864	2374.5
1570.199	2297.5
1588.464	2262.5
1606.657	2138.5
1624.78	2046.5
1642.834	2024.5
1660.817	2043.5
1678.732	1955.5
1696.577	1851.5
1714.355	1952.5
1732.064	1895.5
1749.705	1745.5
1767.28	1581.5
1784.787	1541.5
1802.228	1617.5
1819.603	1596.5
1836.913	1523.5
1854.156	1469.5
1871.335	1482.5
1888.449	1447.5
1905.499	1411.5
1922.485	1444.5
1939.408	1489.5
1956.267	1451.5
1973.063	1331.5
1989.797	1249.5
2006.469	1238.5
2023.078	1184.5
2039.627	1112.5
2056.114	1087.5
2072.54	1091.5
2088.906	1124.5
2105.211	1094.5
2121.457	1064.5
2137.643	1024.5
2153.77	995.5
2169.838	937.5
2185.848	892.5
2201.799	875.5
2217.693	861.5
2233.529	851.5
2249.307	827.5
2265.029	785.5
2280.694	742.5
2296.302	722.5
2311.854	695.5
2327.351	682.5
2342.792	657.5
2358.178	646.5
2373.508	660.5
2388.785	643.5
2404.007	631.5
2419.174	616.5
2434.289	607.5
2449.349	582.5
2464.356	553.5
2479.311	537.5
2494.213	529.5
2509.062	528.5
2523.859	510.5
2538.605	504.5
2553.299	497.5
2567.941	498.5
2582.533	479.5
2597.073	458.5
2611.564	434.5
2626.004	410.5
2640.394	389.5
2654.734	362.5
2669.025	329.5
2683.266	325.5
2697.458	291.5
2711.602	267.5
2725.697	243.5
2739.744	234.5
2753.743	237.5
2767.695	253.5
2781.598	229.5
2795.455	221.5
2809.264	208.5
2823.026	210.5
2836.742	206.5
2850.412	199.5
2864.035	185.5
2877.613	183.5
2891.145	168.5
2904.631	142.5
2918.073	128.5
2931.469	135.5
2944.821	102.5
2958.128	84.5
2971.39	76.5
2984.609	68.5
2997.784	74.5
3010.915	60.5
3024.002	46.5
3037.046	37.5
3050.048	25.5
3063.006	16.5
3075.922	8.5
3088.795	5.5
3101.627	13.5
3114.416	9.5
3127.163	-1.5
3139.869	-4.5
3152.533	-13.5
3165.157	-21.5
3177.739	-23.5
3190.28	-36.5
3202.781	-42.5
3215.241	-47.5
3227.661	-56.5
3240.041	-57.5
3252.382	-64.5
3264.682	-65.5
3276.943	-69.5
3289.165	-64.5
3301.348	-78.5
3313.492	-77.5
3325.597	-90.5
3337.663	-92.5
3349.691	-88.5
3361.681	-89.5
3373.633	-93.5
3385.547	-89.5
3397.424	-92.5
3409.263	-96.5
3421.065	-99.5
3432.829	-105.5
3444.557	-100.5
3456.247	-106.5
3467.902	-112.5
3479.519	-103.5
3491.101	-107.5
3502.646	-112.5
3514.155	-107.5
3525.629	-119.5
3537.067	-115.5
3548.469	-120.5
3559.837	-117.5
3571.169	-123.5
3582.466	-117.5
3593.728	-117.5
3604.956	-125.5
3616.149	-135.5
3627.307	-127.5
3638.432	-126.5
3649.523	-130.5
3660.579	-130.5
3671.602	-127.5
3682.591	-129.5
3693.547	-131.5
3704.47	-130.5
3715.359	-132.5
3726.216	-136.5
3737.039	-134.5
3747.83	-133.5
3758.589	-132.5
3769.315	-131.5
3780.008	-140.5
3790.67	-131.5
3801.299	-135.5
3811.897	-133.5
3822.463	-135.5
3832.998	-130.5
3843.501	-130.5
3853.973	-127.5
3864.414	-130.5
3874.823	-98.5
3885.202	-10.5
3895.55	-115.5
3905.868	-137.5
3916.155	-136.5
3926.411	-136.5
3936.638	-144.5
3946.834	-137.5
3957	-135.5
3967.137	-132.5
3977.244	-135.5
3987.321	-130.5
3997.369	-133.5
4007.388	-126.5
4017.377	-129.5
4027.338	-123.5
4037.269	-128.5
4047.172	-126.5
4057.046	-133.5
4066.891	-132.5
4076.708	-135.5
4086.497	-136.5
4096.257	-137.5
4105.989	-3.5
4115.694	-0.5
4125.37	-135.5
4135.019	-142.5
4142.237	-144.5

File: EC 11 2_RamanShift_1.txt
Data from EC 11 2_RamanShift_1.txt Node

Date: Tue Aug 29 12:18:07 IDT 2017
User: aro
Spectrometer: QEPB0276
Trigger mode: 0
Integration Time (sec): 3.000000E1
Scans to average: 1
Electric dark correction enabled: true
Nonlinearity correction enabled: false
Boxcar width: 0
XAxis mode: Raman Shifts
Number of Pixels in Spectrum: 1044
>>>>>Begin Spectral Data<<<<<
160.701	14.38
184.826	1404.38
208.845	6753.38
232.758	7484.38
256.565	8045.38
280.267	8474.38
303.865	8781.38
327.359	9019.38
350.751	9133.38
374.04	9345.38
397.228	9357.38
420.315	10951.38
443.302	9451.38
466.189	9143.38
488.978	8997.38
511.668	8277.38
534.261	7623.38
556.756	7417.38
579.155	7322.38
601.459	7217.38
623.667	7045.38
645.781	7372.38
667.8	6859.38
689.726	6737.38
711.56	6574.38
733.301	6481.38
754.951	6593.38
776.509	6537.38
797.977	6533.38
819.355	6402.38
840.644	6291.38
861.844	6225.38
882.955	6055.38
903.979	5869.38
924.916	5807.38
945.766	5831.38
966.529	5651.38
987.208	5438.38
1007.801	5536.38
1028.309	5631.38
1048.734	5504.38
1069.075	5330.38
1089.333	5373.38
1109.509	5313.38
1129.602	5078.38
1149.614	4974.38
1169.545	5060.38
1189.395	4906.38
1209.165	4863.38
1228.856	4927.38
1248.467	4831.38
1268	4522.38
1287.455	4418.38
1306.832	4467.38
1326.132	4278.38
1345.354	3918.38
1364.501	3845.38
1383.572	4075.38
1402.567	3893.38
1421.487	3748.38
1440.333	3714.38
1459.104	3637.38
1477.802	3377.38
1496.426	3327.38
1514.978	3566.38
1533.457	3572.38
1551.864	3445.38
1570.199	3327.38
1588.464	3258.38
1606.657	3107.38
1624.78	2926.38
1642.834	2888.38
1660.817	2900.38
1678.732	2767.38
1696.577	2601.38
1714.355	2774.38
1732.064	2714.38
1749.705	2486.38
1767.28	2235.38
1784.787	2140.38
1802.228	2293.38
1819.603	2265.38
1836.913	2144.38
1854.156	2089.38
1871.335	2080.38
1888.449	2007.38
1905.499	1938.38
1922.485	1966.38
1939.408	2046.38
1956.267	2029.38
1973.063	1901.38
1989.797	1792.38
2006.469	1729.38
2023.078	1657.38
2039.627	1535.38
2056.114	1494.38
2072.54	1510.38
2088.906	1539.38
2105.211	1524.38
2121.457	1463.38
2137.643	1430.38
2153.77	1397.38
2169.838	1308.38
2185.848	1255.38
2201.799	1227.38
2217.693	1217.38
2233.529	1215.38
2249.307	1142.38
2265.029	1106.38
2280.694	1059.38
2296.302	1029.38
2311.854	985.38
2327.351	982.38
2342.792	942.38
2358.178	947.38
2373.508	948.38
2388.785	947.38
2404.007	896.38
2419.174	900.38
2434.289	862.38
2449.349	828.38
2464.356	784.38
2479.311	760.38
2494.213	752.38
2509.062	743.38
2523.859	701.38
2538.605	703.38
2553.299	688.38
2567.941	692.38
2582.533	658.38
2597.073	635.38
2611.564	619.38
2626.004	590.38
2640.394	549.38
2654.734	509.38
2669.025	477.38
2683.266	462.38
2697.458	403.38
2711.602	379.38
2725.697	327.38
2739.744	320.38
2753.743	329.38
2767.695	332.38
2781.598	326.38
2795.455	301.38
2809.264	292.38
2823.026	280.38
2836.742	277.38
2850.412	261.38
2864.035	255.38
2877.613	247.38
2891.145	217.38
2904.631	183.38
2918.073	169.38
2931.469	157.38
2944.821	138.38
2958.128	109.38
2971.39	100.38
2984.609	88.38
2997.784	89.38
3010.915	83.38
3024.002	61.38
3037.046	52.38
3050.048	25.38
3063.006	13.38
3075.922	14.38
3088.795	1.38
3101.627	4.38
3114.416	-1.62
3127.163	-12.62
3139.869	-16.62
3152.533	-30.62
3165.157	-47.62
3177.739	-50.62
3190.28	-58.62
3202.781	-74.62
3215.241	-76.62
3227.661	-85.62
3240.041	-95.62
3252.382	-95.62
3264.682	-97.62
3276.943	-106.62
3289.165	-100.62
3301.348	-109.62
3313.492	-111.62
3325.597	-120.62
3337.663	-125.62
3349.691	-131.62
3361.681	-132.62
3373.633	-130.62
3385.547	-136.62
3397.424	-137.62
3409.263	-142.62
3421.065	-144.62
3432.829	-150.62
3444.557	-146.62
3456.247	-150.62
3467.902	-163.62
3479.519	-152.62
3491.101	-154.62
3502.646	-159.62
3514.155	-164.62
3525.629	-168.62
3537.067	-168.62
3548.469	-172.62
3559.837	-171.62
3571.169	-170.62
3582.466	-175.62
3593.728	-170.62
3604.956	-176.62
3616.149	-180.62
3627.307	-177.62
3638.432	-174.62
3649.523	-176.62
3660.579	-182.62
3671.602	-182.62
3682.591	-183.62
3693.547	-181.62
3704.47	-189.62
3715.359	-186.62
3726.216	-191.62
3737.039	-193.62
3747.83	-189.62
3758.589	-186.62
3769.315	-186.62
3780.008	-197.62
3790.67	-185.62
3801.299	-185.62
3811.897	-185.62
3822.463	-182.62
3832.998	-182.62
3843.501	-185.62
3853.973	-182.62
3864.414	-185.62
3874.823	-150.62
3885.202	-38.62
3895.55	-174.62
3905.868	-192.62
3916.155	-190.62
3926.411	-195.62
3936.638	-191.62
3946.834	-191.62
3957	-195.62
3967.137	-190.62
3977.244	-189.62
3987.321	-184.62
3997.369	-187.62
4007.388	-178.62
4017.377	-181.62
4027.338	-181.62
4037.269	-185.62
4047.172	-186.62
4057.046	-182.62
4066.891	-188.62
4076.708	-184.62
4086.497	-187.62
4096.257	-195.62
4105.989	-23.62
4115.694	-18.62
4125.37	-189.62
4135.019	-195.62
4142.237	-203.62

File: EC 11 2_RamanShift_2.txt
Data from EC 11 2_RamanShift_2.txt Node

Date: Tue Aug 29 12:18:37 IDT 2017
User: aro
Spectrometer: QEPB0276
Trigger mode: 0
Integration Time (sec): 3.000000E1
Scans to average: 1
Electric dark correction enabled: true
Nonlinearity correction enabled: false
Boxcar width: 0
XAxis mode: Raman Shifts
Number of Pixels in Spectrum: 1044
>>>>>Begin Spectral Data<<<<<
160.701	16.62
184.826	1245.62
208.845	5858.62
232.758	6509.62
256.565	7035.62
280.267	7374.62
303.865	7721.62
327.359	7909.62
350.751	7996.62
374.04	8235.62
397.228	8309.62
420.315	9879.62
443.302	8380.62
466.189	8049.62
488.978	7929.62
511.668	7235.62
534.261	6592.62
556.756	6421.62
579.155	6315.62
601.459	6222.62
623.667	6071.62
645.781	6396.62
667.8	5915.62
689.726	5790.62
711.56	5674.62
733.301	5597.62
754.951	5744.62
776.509	5663.62
797.977	5735.62
819.355	5558.62
840.644	5497.62
861.844	5412.62
882.955	5269.62
903.979	5118.62
924.916	5073.62
945.766	5065.62
966.529	4912.62
987.208	4757.62
1007.801	4836.62
1028.309	4910.62
1048.734	4816.62
1069.075	4690.62
1089.333	4729.62
1109.509	4709.62
1129.602	4422.62
1149.614	4399.62
1169.545	4402.62
1189.395	4321.62
1209.165	4267.62
1228.856	4348.62
1248.467	4303.62
1268	3994.62
1287.455	3904.62
1306.832	3918.62
1326.132	3787.62
1345.354	3474.62
1364.501	3417.62
1383.572	3584.62
1402.567	3466.62
1421.487	3307.62
1440.333	3296.62
1459.104	3212.62
1477.802	3003.62
1496.426	2975.62
1514.978	3171.62
1533.457	3172.62
1551.864	3068.62
1570.199	2971.62
1588.464	2924.62
1606.657	2750.62
1624.78	2593.62
1642.834	2573.62
1660.817	2590.62
1678.732	2471.62
1696.577	2336.62
1714.355	2504.62
1732.064	2441.62
1749.705	2216.62
1767.28	2022.62
1784.787	1912.62
1802.228	2083.62
1819.603	2065.62
1836.913	1947.62
1854.156	1887.62
1871.335	1874.62
1888.449	1808.62
1905.499	1748.62
1922.485	1771.62
1939.408	1864.62
1956.267	1838.62
1973.063	1697.62
1989.797	1604.62
2006.469	1565.62
2023.078	1502.62
2039.627	1385.62
2056.114	1363.62
2072.54	1378.62
2088.906	1401.62
2105.211	1380.62
2121.457	1340.62
2137.643	1301.62
2153.77	1269.62
2169.838	1215.62
2185.848	1143.62
2201.799	1119.62
2217.693	1112.62
2233.529	1097.62
2249.307	1048.62
2265.029	1013.62
2280.694	988.62
2296.302	953.62
2311.854	912.62
2327.351	914.62
2342.792	875.62
2358.178	864.62
2373.508	865.62
2388.785	863.62
2404.007	839.62
2419.174	827.62
2434.289	812.62
2449.349	764.62
2464.356	735.62
2479.311	709.62
2494.213	703.62
2509.062	680.62
2523.859	648.62
2538.605	647.62
2553.299	649.62
2567.941	637.62
2582.533	622.62
2597.073	586.62
2611.564	566.62
2626.004	551.62
2640.394	522.62
2654.734	483.62
2669.025	445.62
2683.266	429.62
2697.458	387.62
2711.602	355.62
2725.697	316.62
2739.744	307.62
2753.743	315.62
2767.695	313.62
2781.598	300.62
2795.455	287.62
2809.264	282.62
2823.026	266.62
2836.742	264.62
2850.412	252.62
2864.035	247.62
2877.613	232.62
2891.145	222.62
2904.631	182.62
2918.073	172.62
2931.469	162.62
2944.821	138.62
2958.128	117.62
2971.39	95.62
2984.609	88.62
2997.784	90.62
3010.915	81.62
3024.002	65.62
3037.046	54.62
3050.048	35.62
3063.006	30.62
3075.922	33.62
3088.795	17.62
3101.627	12.62
3114.416	12.62
3127.163	5.62
3139.869	-2.38
3152.533	-15.38
3165.157	-31.38
3177.739	-31.38
3190.28	-47.38
3202.781	-56.38
3215.241	-62.38
3227.661	-79.38
3240.041	-79.38
3252.382	-78.38
3264.682	-81.38
3276.943	-88.38
3289.165	-86.38
3301.348	-94.38
3313.492	-104.38
3325.597	-106.38
3337.663	-113.38
3349.691	-107.38
3361.681	-110.38
3373.633	-113.38
3385.547	-115.38
3397.424	-112.38
3409.263	-124.38
3421.065	-130.38
3432.829	-128.38
3444.557	-131.38
3456.247	-136.38
3467.902	-143.38
3479.519	-137.38
3491.101	-139.38
3502.646	-140.38
3514.155	-143.38
3525.629	-150.38
3537.067	-144.38
3548.469	-151.38
3559.837	-147.38
3571.169	-145.38
3582.466	-148.38
3593.728	-146.38
3604.956	-152.38
3616.149	-155.38
3627.307	-164.38
3638.432	-158.38
3649.523	-162.38
3660.579	-160.38
3671.602	-162.38
3682.591	-162.38
3693.547	-163.38
3704.47	-166.38
3715.359	-162.38
3726.216	-167.38
3737.039	-168.38
3747.83	-164.38
3758.589	-163.38
3769.315	-164.38
3780.008	-168.38
3790.67	-164.38
3801.299	-163.38
3811.897	-167.38
3822.463	-165.38
3832.998	-164.38
3843.501	-166.38
3853.973	-163.38
3864.414	-165.38
3874.823	-127.38
3885.202	-26.38
3895.55	-158.38
3905.868	-172.38
3916.155	-171.38
3926.411	-172.38
3936.638	-175.38
3946.834	-168.38
3957	-164.38
3967.137	-167.38
3977.244	-167.38
3987.321	-167.38
3997.369	-169.38
4007.388	-158.38
4017.377	-160.38
4027.338	-160.38
4037.269	-165.38
4047.172	-169.38
4057.046	-166.38
4066.891	-169.38
4076.708	-163.38
4086.497	-162.38
4096.257	-174.38
4105.989	-11.38
4115.694	-7.38
4125.37	-167.38
4135.019	-174.38
4142.237	-178.38

File: EC 11 2_RamanShift_3.txt
Data from EC 11 2_RamanShift_3.txt Node

Date: Tue Aug 29 12:19:07 IDT 2017
User: aro
Spectrometer: QEPB0276
Trigger mode: 0
Integration Time (sec): 3.000000E1
Scans to average: 1
Electric dark correction enabled: true
Nonlinearity correction enabled: false
Boxcar width: 0
XAxis mode: Raman Shifts
Number of Pixels in Spectrum: 1044
>>>>>Begin Spectral Data<<<<<
160.701	16.38
184.826	1135.38
208.845	5387.38
232.758	5954.38
256.565	6463.38
280.267	6789.38
303.865	7097.38
327.359	7247.38
350.751	7368.38
374.04	7607.38
397.228	7655.38
420.315	9245.38
443.302	7713.38
466.189	7458.38
488.978	7343.38
511.668	6655.38
534.261	6026.38
556.756	5826.38
579.155	5795.38
601.459	5691.38
623.667	5534.38
645.781	5902.38
667.8	5412.38
689.726	5269.38
711.56	5168.38
733.301	5126.38
754.951	5260.38
776.509	5209.38
797.977	5222.38
819.355	5111.38
840.644	5021.38
861.844	4933.38
882.955	4815.38
903.979	4642.38
924.916	4640.38
945.766	4665.38
966.529	4512.38
987.208	4336.38
1007.801	4446.38
1028.309	4531.38
1048.734	4434.38
1069.075	4312.38
1089.333	4343.38
1109.509	4294.38
1129.602	4079.38
1149.614	4031.38
1169.545	4055.38
1189.395	3988.38
1209.165	3929.38
1228.856	4017.38
1248.467	3939.38
1268	3698.38
1287.455	3616.38
1306.832	3625.38
1326.132	3535.38
1345.354	3230.38
1364.501	3158.38
1383.572	3325.38
1402.567	3193.38
1421.487	3034.38
1440.333	3063.38
1459.104	2981.38
1477.802	2795.38
1496.426	2782.38
1514.978	2938.38
1533.457	2968.38
1551.864	2853.38
1570.199	2764.38
1588.464	2680.38
1606.657	2569.38
1624.78	2410.38
1642.834	2403.38
1660.817	2423.38
1678.732	2289.38
1696.577	2164.38
1714.355	2330.38
1732.064	2256.38
1749.705	2091.38
1767.28	1880.38
1784.787	1792.38
1802.228	1924.38
1819.603	1935.38
1836.913	1818.38
1854.156	1764.38
1871.335	1749.38
1888.449	1700.38
1905.499	1626.38
1922.485	1644.38
1939.408	1742.38
1956.267	1718.38
1973.063	1595.38
1989.797	1486.38
2006.469	1468.38
2023.078	1415.38
2039.627	1333.38
2056.114	1254.38
2072.54	1292.38
2088.906	1321.38
2105.211	1292.38
2121.457	1256.38
2137.643	1224.38
2153.77	1200.38
2169.838	1144.38
2185.848	1088.38
2201.799	1045.38
2217.693	1032.38
2233.529	1047.38
2249.307	1005.38
2265.029	958.38
2280.694	918.38
2296.302	904.38
2311.854	871.38
2327.351	867.38
2342.792	834.38
2358.178	829.38
2373.508	838.38
2388.785	818.38
2404.007	792.38
2419.174	779.38
2434.289	755.38
2449.349	719.38
2464.356	684.38
2479.311	666.38
2494.213	664.38
2509.062	655.38
2523.859	632.38
2538.605	617.38
2553.299	621.38
2567.941	590.38
2582.533	597.38
2597.073	564.38
2611.564	547.38
2626.004	518.38
2640.394	490.38
2654.734	476.38
2669.025	430.38
2683.266	421.38
2697.458	364.38
2711.602	341.38
2725.697	298.38
2739.744	292.38
2753.743	294.38
2767.695	304.38
2781.598	291.38
2795.455	271.38
2809.264	262.38
2823.026	262.38
2836.742	250.38
2850.412	245.38
2864.035	247.38
2877.613	234.38
2891.145	207.38
2904.631	193.38
2918.073	167.38
2931.469	150.38
2944.821	142.38
2958.128	112.38
2971.39	97.38
2984.609	77.38
2997.784	89.38
3010.915	87.38
3024.002	61.38
3037.046	51.38
3050.048	38.38
3063.006	24.38
3075.922	28.38
3088.795	14.38
3101.627	16.38
3114.416	8.38
3127.163	3.38
3139.869	2.38
3152.533	-8.62
3165.157	-20.62
3177.739	-34.62
3190.28	-46.62
3202.781	-52.62
3215.241	-62.62
3227.661	-68.62
3240.041	-74.62
3252.382	-79.62
3264.682	-77.62
3276.943	-82.62
3289.165	-81.62
3301.348	-93.62
3313.492	-91.62
3325.597	-98.62
3337.663	-99.62
3349.691	-106.62
3361.681	-108.62
3373.633	-106.62
3385.547	-114.62
3397.424	-113.62
3409.263	-116.62
3421.065	-122.62
3432.829	-120.62
3444.557	-116.62
3456.247	-124.62
3467.902	-128.62
3479.519	-125.62
3491.101	-129.62
3502.646	-126.62
3514.155	-133.62
3525.629	-138.62
3537.067	-139.62
3548.469	-146.62
3559.837	-134.62
3571.169	-142.62
3582.466	-144.62
3593.728	-144.62
3604.956	-151.62
3616.149	-155.62
3627.307	-149.62
3638.432	-152.62
3649.523	-151.62
3660.579	-150.62
3671.602	-150.62
3682.591	-153.62
3693.547	-149.62
3704.47	-156.62
3715.359	-150.62
3726.216	-158.62
3737.039	-156.62
3747.83	-157.62
3758.589	-151.62
3769.315	-155.62
3780.008	-162.62
3790.67	-159.62
3801.299	-154.62
3811.897	-158.62
3822.463	-155.62
3832.998	-156.62
3843.501	-157.62
3853.973	-155.62
3864.414	-155.62
3874.823	-121.62
3885.202	-23.62
3895.55	-142.62
3905.868	-162.62
3916.155	-158.62
3926.411	-160.62
3936.638	-166.62
3946.834	-159.62
3957	-154.62
3967.137	-157.62
3977.244	-156.62
3987.321	-154.62
3997.369	-157.62
4007.388	-153.62
4017.377	-151.62
4027.338	-151.62
4037.269	-154.62
4047.172	-158.62
4057.046	-155.62
4066.891	-160.62
4076.708	-156.62
4086.497	-157.62
4096.257	-166.62
4105.989	-11.62
4115.694	-8.62
4125.37	-160.62
4135.019	-169.62
4142.237	-167.62