Folder: Water/Data/Raman/2017-08-29 - Alluminum 2/Aug 29 2017 - Aluminum 2

File: blank 1_RamanShift_1.txt
Data from blank 1_RamanShift_1.txt Node

Date: Tue Aug 29 12:00:07 IDT 2017
User: aro
Spectrometer: QEPB0276
Trigger mode: 0
Integration Time (sec): 3.000000E1
Scans to average: 1
Electric dark correction enabled: true
Nonlinearity correction enabled: false
Boxcar width: 0
XAxis mode: Raman Shifts
Number of Pixels in Spectrum: 1044
>>>>>Begin Spectral Data<<<<<
160.701	40
184.826	514
208.845	2293
232.758	2411
256.565	2543
280.267	2682
303.865	2831
327.359	2962
350.751	3073
374.04	3376
397.228	3470
420.315	5443
443.302	3549
466.189	3188
488.978	3086
511.668	2327
534.261	1645
556.756	1423
579.155	1393
601.459	1353
623.667	1287
645.781	1841
667.8	1219
689.726	1079
711.56	1057
733.301	1066
754.951	1266
776.509	1185
797.977	1293
819.355	1224
840.644	1132
861.844	1002
882.955	908
903.979	874
924.916	871
945.766	859
966.529	836
987.208	808
1007.801	844
1028.309	867
1048.734	908
1069.075	895
1089.333	884
1109.509	843
1129.602	781
1149.614	781
1169.545	817
1189.395	817
1209.165	820
1228.856	842
1248.467	804
1268	742
1287.455	721
1306.832	750
1326.132	758
1345.354	716
1364.501	693
1383.572	694
1402.567	655
1421.487	652
1440.333	665
1459.104	674
1477.802	667
1496.426	677
1514.978	716
1533.457	693
1551.864	649
1570.199	626
1588.464	605
1606.657	581
1624.78	562
1642.834	568
1660.817	593
1678.732	577
1696.577	566
1714.355	557
1732.064	530
1749.705	477
1767.28	466
1784.787	457
1802.228	469
1819.603	443
1836.913	411
1854.156	399
1871.335	417
1888.449	416
1905.499	403
1922.485	410
1939.408	416
1956.267	395
1973.063	355
1989.797	323
2006.469	321
2023.078	317
2039.627	304
2056.114	299
2072.54	304
2088.906	310
2105.211	301
2121.457	281
2137.643	262
2153.77	255
2169.838	240
2185.848	214
2201.799	215
2217.693	213
2233.529	208
2249.307	198
2265.029	193
2280.694	183
2296.302	168
2311.854	167
2327.351	173
2342.792	145
2358.178	142
2373.508	142
2388.785	138
2404.007	124
2419.174	122
2434.289	121
2449.349	111
2464.356	93
2479.311	94
2494.213	98
2509.062	109
2523.859	96
2538.605	93
2553.299	93
2567.941	85
2582.533	80
2597.073	74
2611.564	69
2626.004	63
2640.394	60
2654.734	49
2669.025	40
2683.266	42
2697.458	30
2711.602	24
2725.697	23
2739.744	28
2753.743	27
2767.695	28
2781.598	12
2795.455	13
2809.264	14
2823.026	14
2836.742	15
2850.412	7
2864.035	5
2877.613	-1
2891.145	-2
2904.631	-17
2918.073	-16
2931.469	-14
2944.821	-18
2958.128	-28
2971.39	-30
2984.609	-35
2997.784	-26
3010.915	-35
3024.002	-41
3037.046	-40
3050.048	-43
3063.006	-48
3075.922	-48
3088.795	-49
3101.627	-45
3114.416	-47
3127.163	-50
3139.869	-55
3152.533	-55
3165.157	-57
3177.739	-58
3190.28	-64
3202.781	-68
3215.241	-71
3227.661	-67
3240.041	-68
3252.382	-74
3264.682	-71
3276.943	-72
3289.165	-74
3301.348	-78
3313.492	-83
3325.597	-82
3337.663	-89
3349.691	-83
3361.681	-77
3373.633	-78
3385.547	-83
3397.424	-75
3409.263	-82
3421.065	-83
3432.829	-83
3444.557	-87
3456.247	-88
3467.902	-90
3479.519	-89
3491.101	-86
3502.646	-87
3514.155	-86
3525.629	-84
3537.067	-92
3548.469	-94
3559.837	-90
3571.169	-89
3582.466	-97
3593.728	-92
3604.956	-91
3616.149	-92
3627.307	-95
3638.432	-89
3649.523	-92
3660.579	-92
3671.602	-92
3682.591	-95
3693.547	-95
3704.47	-99
3715.359	-95
3726.216	-102
3737.039	-98
3747.83	-98
3758.589	-100
3769.315	-98
3780.008	-103
3790.67	-96
3801.299	-99
3811.897	-93
3822.463	-93
3832.998	-90
3843.501	-95
3853.973	-94
3864.414	-97
3874.823	-48
3885.202	86
3895.55	-72
3905.868	-96
3916.155	-95
3926.411	-96
3936.638	-98
3946.834	-94
3957	-92
3967.137	-95
3977.244	-100
3987.321	-99
3997.369	-96
4007.388	-95
4017.377	-96
4027.338	-92
4037.269	-98
4047.172	-94
4057.046	-94
4066.891	-99
4076.708	-92
4086.497	-94
4096.257	-98
4105.989	53
4115.694	36
4125.37	-96
4135.019	-98
4142.237	-100

File: blank 1_RamanShift_2.txt
Data from blank 1_RamanShift_2.txt Node

Date: Tue Aug 29 12:00:37 IDT 2017
User: aro
Spectrometer: QEPB0276
Trigger mode: 0
Integration Time (sec): 3.000000E1
Scans to average: 1
Electric dark correction enabled: true
Nonlinearity correction enabled: false
Boxcar width: 0
XAxis mode: Raman Shifts
Number of Pixels in Spectrum: 1044
>>>>>Begin Spectral Data<<<<<
160.701	35.38
184.826	512.38
208.845	2244.38
232.758	2352.38
256.565	2498.38
280.267	2613.38
303.865	2780.38
327.359	2883.38
350.751	2998.38
374.04	3351.38
397.228	3391.38
420.315	5345.38
443.302	3476.38
466.189	3110.38
488.978	3002.38
511.668	2289.38
534.261	1611.38
556.756	1389.38
579.155	1352.38
601.459	1315.38
623.667	1239.38
645.781	1790.38
667.8	1170.38
689.726	1048.38
711.56	1005.38
733.301	1026.38
754.951	1227.38
776.509	1126.38
797.977	1249.38
819.355	1180.38
840.644	1087.38
861.844	970.38
882.955	885.38
903.979	853.38
924.916	827.38
945.766	817.38
966.529	798.38
987.208	778.38
1007.801	809.38
1028.309	826.38
1048.734	861.38
1069.075	870.38
1089.333	858.38
1109.509	801.38
1129.602	761.38
1149.614	758.38
1169.545	791.38
1189.395	774.38
1209.165	787.38
1228.856	806.38
1248.467	785.38
1268	698.38
1287.455	676.38
1306.832	718.38
1326.132	702.38
1345.354	681.38
1364.501	665.38
1383.572	663.38
1402.567	618.38
1421.487	611.38
1440.333	634.38
1459.104	642.38
1477.802	630.38
1496.426	635.38
1514.978	673.38
1533.457	641.38
1551.864	606.38
1570.199	598.38
1588.464	582.38
1606.657	559.38
1624.78	549.38
1642.834	549.38
1660.817	558.38
1678.732	542.38
1696.577	553.38
1714.355	518.38
1732.064	484.38
1749.705	461.38
1767.28	438.38
1784.787	439.38
1802.228	446.38
1819.603	413.38
1836.913	396.38
1854.156	390.38
1871.335	394.38
1888.449	388.38
1905.499	378.38
1922.485	387.38
1939.408	397.38
1956.267	373.38
1973.063	337.38
1989.797	306.38
2006.469	312.38
2023.078	294.38
2039.627	286.38
2056.114	282.38
2072.54	294.38
2088.906	294.38
2105.211	277.38
2121.457	265.38
2137.643	251.38
2153.77	237.38
2169.838	230.38
2185.848	207.38
2201.799	210.38
2217.693	211.38
2233.529	207.38
2249.307	196.38
2265.029	173.38
2280.694	167.38
2296.302	156.38
2311.854	151.38
2327.351	149.38
2342.792	134.38
2358.178	132.38
2373.508	125.38
2388.785	126.38
2404.007	120.38
2419.174	117.38
2434.289	118.38
2449.349	103.38
2464.356	95.38
2479.311	90.38
2494.213	96.38
2509.062	92.38
2523.859	87.38
2538.605	75.38
2553.299	82.38
2567.941	81.38
2582.533	75.38
2597.073	74.38
2611.564	64.38
2626.004	54.38
2640.394	62.38
2654.734	43.38
2669.025	34.38
2683.266	37.38
2697.458	28.38
2711.602	22.38
2725.697	20.38
2739.744	19.38
2753.743	20.38
2767.695	23.38
2781.598	11.38
2795.455	19.38
2809.264	8.38
2823.026	10.38
2836.742	14.38
2850.412	6.38
2864.035	3.38
2877.613	-2.62
2891.145	-0.62
2904.631	-6.62
2918.073	-19.62
2931.469	-25.62
2944.821	-23.62
2958.128	-25.62
2971.39	-27.62
2984.609	-28.62
2997.784	-26.62
3010.915	-31.62
3024.002	-40.62
3037.046	-39.62
3050.048	-44.62
3063.006	-45.62
3075.922	-43.62
3088.795	-52.62
3101.627	-47.62
3114.416	-48.62
3127.163	-57.62
3139.869	-55.62
3152.533	-56.62
3165.157	-58.62
3177.739	-62.62
3190.28	-60.62
3202.781	-68.62
3215.241	-69.62
3227.661	-72.62
3240.041	-66.62
3252.382	-71.62
3264.682	-69.62
3276.943	-71.62
3289.165	-69.62
3301.348	-75.62
3313.492	-76.62
3325.597	-81.62
3337.663	-80.62
3349.691	-82.62
3361.681	-75.62
3373.633	-80.62
3385.547	-76.62
3397.424	-79.62
3409.263	-81.62
3421.065	-85.62
3432.829	-82.62
3444.557	-85.62
3456.247	-87.62
3467.902	-86.62
3479.519	-78.62
3491.101	-84.62
3502.646	-83.62
3514.155	-83.62
3525.629	-94.62
3537.067	-93.62
3548.469	-90.62
3559.837	-84.62
3571.169	-93.62
3582.466	-89.62
3593.728	-84.62
3604.956	-91.62
3616.149	-89.62
3627.307	-93.62
3638.432	-92.62
3649.523	-98.62
3660.579	-90.62
3671.602	-94.62
3682.591	-93.62
3693.547	-92.62
3704.47	-97.62
3715.359	-97.62
3726.216	-100.62
3737.039	-99.62
3747.83	-98.62
3758.589	-96.62
3769.315	-96.62
3780.008	-99.62
3790.67	-99.62
3801.299	-94.62
3811.897	-94.62
3822.463	-94.62
3832.998	-95.62
3843.501	-95.62
3853.973	-89.62
3864.414	-93.62
3874.823	-47.62
3885.202	97.38
3895.55	-67.62
3905.868	-91.62
3916.155	-95.62
3926.411	-90.62
3936.638	-101.62
3946.834	-97.62
3957	-92.62
3967.137	-93.62
3977.244	-95.62
3987.321	-97.62
3997.369	-95.62
4007.388	-93.62
4017.377	-92.62
4027.338	-89.62
4037.269	-93.62
4047.172	-88.62
4057.046	-97.62
4066.891	-98.62
4076.708	-91.62
4086.497	-95.62
4096.257	-95.62
4105.989	59.38
4115.694	34.38
4125.37	-97.62
4135.019	-99.62
4142.237	-105.62

File: blank 1_RamanShift_3.txt
Data from blank 1_RamanShift_3.txt Node

Date: Tue Aug 29 12:01:07 IDT 2017
User: aro
Spectrometer: QEPB0276
Trigger mode: 0
Integration Time (sec): 3.000000E1
Scans to average: 1
Electric dark correction enabled: true
Nonlinearity correction enabled: false
Boxcar width: 0
XAxis mode: Raman Shifts
Number of Pixels in Spectrum: 1044
>>>>>Begin Spectral Data<<<<<
160.701	36.12
184.826	499.12
208.845	2208.12
232.758	2304.12
256.565	2438.12
280.267	2577.12
303.865	2727.12
327.359	2853.12
350.751	2954.12
374.04	3286.12
397.228	3327.12
420.315	5293.12
443.302	3438.12
466.189	3083.12
488.978	2955.12
511.668	2210.12
534.261	1570.12
556.756	1350.12
579.155	1320.12
601.459	1299.12
623.667	1213.12
645.781	1751.12
667.8	1155.12
689.726	1036.12
711.56	995.12
733.301	995.12
754.951	1197.12
776.509	1106.12
797.977	1223.12
819.355	1154.12
840.644	1061.12
861.844	949.12
882.955	848.12
903.979	815.12
924.916	812.12
945.766	786.12
966.529	773.12
987.208	760.12
1007.801	783.12
1028.309	823.12
1048.734	843.12
1069.075	833.12
1089.333	814.12
1109.509	804.12
1129.602	721.12
1149.614	732.12
1169.545	772.12
1189.395	754.12
1209.165	772.12
1228.856	779.12
1248.467	756.12
1268	678.12
1287.455	671.12
1306.832	684.12
1326.132	670.12
1345.354	653.12
1364.501	649.12
1383.572	643.12
1402.567	606.12
1421.487	587.12
1440.333	608.12
1459.104	630.12
1477.802	596.12
1496.426	616.12
1514.978	651.12
1533.457	630.12
1551.864	600.12
1570.199	572.12
1588.464	565.12
1606.657	525.12
1624.78	523.12
1642.834	524.12
1660.817	537.12
1678.732	535.12
1696.577	533.12
1714.355	509.12
1732.064	473.12
1749.705	443.12
1767.28	424.12
1784.787	419.12
1802.228	432.12
1819.603	396.12
1836.913	380.12
1854.156	373.12
1871.335	375.12
1888.449	391.12
1905.499	368.12
1922.485	384.12
1939.408	381.12
1956.267	360.12
1973.063	335.12
1989.797	309.12
2006.469	294.12
2023.078	279.12
2039.627	278.12
2056.114	270.12
2072.54	285.12
2088.906	289.12
2105.211	277.12
2121.457	251.12
2137.643	244.12
2153.77	236.12
2169.838	213.12
2185.848	204.12
2201.799	198.12
2217.693	200.12
2233.529	204.12
2249.307	180.12
2265.029	182.12
2280.694	162.12
2296.302	152.12
2311.854	146.12
2327.351	146.12
2342.792	132.12
2358.178	118.12
2373.508	127.12
2388.785	117.12
2404.007	118.12
2419.174	117.12
2434.289	110.12
2449.349	95.12
2464.356	91.12
2479.311	87.12
2494.213	91.12
2509.062	94.12
2523.859	79.12
2538.605	80.12
2553.299	78.12
2567.941	71.12
2582.533	66.12
2597.073	65.12
2611.564	55.12
2626.004	49.12
2640.394	48.12
2654.734	40.12
2669.025	27.12
2683.266	30.12
2697.458	27.12
2711.602	25.12
2725.697	14.12
2739.744	24.12
2753.743	21.12
2767.695	24.12
2781.598	16.12
2795.455	4.12
2809.264	6.12
2823.026	4.12
2836.742	8.12
2850.412	-0.88
2864.035	-4.88
2877.613	-4.88
2891.145	-8.88
2904.631	-14.88
2918.073	-20.88
2931.469	-16.88
2944.821	-28.88
2958.128	-28.88
2971.39	-35.88
2984.609	-35.88
2997.784	-32.88
3010.915	-34.88
3024.002	-43.88
3037.046	-40.88
3050.048	-48.88
3063.006	-54.88
3075.922	-45.88
3088.795	-54.88
3101.627	-51.88
3114.416	-49.88
3127.163	-55.88
3139.869	-56.88
3152.533	-60.88
3165.157	-66.88
3177.739	-65.88
3190.28	-70.88
3202.781	-68.88
3215.241	-70.88
3227.661	-73.88
3240.041	-74.88
3252.382	-71.88
3264.682	-70.88
3276.943	-74.88
3289.165	-72.88
3301.348	-79.88
3313.492	-80.88
3325.597	-83.88
3337.663	-83.88
3349.691	-80.88
3361.681	-82.88
3373.633	-79.88
3385.547	-79.88
3397.424	-77.88
3409.263	-83.88
3421.065	-86.88
3432.829	-87.88
3444.557	-82.88
3456.247	-86.88
3467.902	-92.88
3479.519	-81.88
3491.101	-87.88
3502.646	-84.88
3514.155	-80.88
3525.629	-88.88
3537.067	-91.88
3548.469	-93.88
3559.837	-90.88
3571.169	-93.88
3582.466	-91.88
3593.728	-88.88
3604.956	-92.88
3616.149	-94.88
3627.307	-94.88
3638.432	-93.88
3649.523	-96.88
3660.579	-96.88
3671.602	-93.88
3682.591	-91.88
3693.547	-93.88
3704.47	-97.88
3715.359	-96.88
3726.216	-99.88
3737.039	-100.88
3747.83	-96.88
3758.589	-100.88
3769.315	-100.88
3780.008	-107.88
3790.67	-96.88
3801.299	-96.88
3811.897	-95.88
3822.463	-94.88
3832.998	-91.88
3843.501	-92.88
3853.973	-90.88
3864.414	-95.88
3874.823	-51.88
3885.202	99.12
3895.55	-76.88
3905.868	-100.88
3916.155	-104.88
3926.411	-99.88
3936.638	-103.88
3946.834	-100.88
3957	-96.88
3967.137	-88.88
3977.244	-95.88
3987.321	-95.88
3997.369	-99.88
4007.388	-90.88
4017.377	-91.88
4027.338	-91.88
4037.269	-94.88
4047.172	-96.88
4057.046	-96.88
4066.891	-98.88
4076.708	-99.88
4086.497	-96.88
4096.257	-95.88
4105.989	55.12
4115.694	31.12
4125.37	-97.88
4135.019	-95.88
4142.237	-104.88

File: blank 2_RamanShift_1.txt
Data from blank 2_RamanShift_1.txt Node

Date: Tue Aug 29 12:23:37 IDT 2017
User: aro
Spectrometer: QEPB0276
Trigger mode: 0
Integration Time (sec): 3.000000E1
Scans to average: 1
Electric dark correction enabled: true
Nonlinearity correction enabled: false
Boxcar width: 0
XAxis mode: Raman Shifts
Number of Pixels in Spectrum: 1044
>>>>>Begin Spectral Data<<<<<
160.701	36.12
184.826	471.12
208.845	2074.12
232.758	2209.12
256.565	2384.12
280.267	2604.12
303.865	2808.12
327.359	2920.12
350.751	3089.12
374.04	3475.12
397.228	3520.12
420.315	5833.12
443.302	3641.12
466.189	3248.12
488.978	3093.12
511.668	2249.12
534.261	1503.12
556.756	1271.12
579.155	1235.12
601.459	1201.12
623.667	1104.12
645.781	1727.12
667.8	1036.12
689.726	902.12
711.56	857.12
733.301	887.12
754.951	1129.12
776.509	1009.12
797.977	1133.12
819.355	1068.12
840.644	968.12
861.844	819.12
882.955	730.12
903.979	697.12
924.916	686.12
945.766	661.12
966.529	660.12
987.208	637.12
1007.801	658.12
1028.309	690.12
1048.734	730.12
1069.075	723.12
1089.333	707.12
1109.509	657.12
1129.602	594.12
1149.614	600.12
1169.545	640.12
1189.395	643.12
1209.165	625.12
1228.856	648.12
1248.467	619.12
1268	550.12
1287.455	536.12
1306.832	550.12
1326.132	553.12
1345.354	516.12
1364.501	512.12
1383.572	500.12
1402.567	470.12
1421.487	453.12
1440.333	477.12
1459.104	479.12
1477.802	480.12
1496.426	498.12
1514.978	512.12
1533.457	485.12
1551.864	454.12
1570.199	434.12
1588.464	435.12
1606.657	423.12
1624.78	398.12
1642.834	418.12
1660.817	432.12
1678.732	424.12
1696.577	419.12
1714.355	396.12
1732.064	372.12
1749.705	338.12
1767.28	326.12
1784.787	322.12
1802.228	324.12
1819.603	302.12
1836.913	280.12
1854.156	286.12
1871.335	290.12
1888.449	291.12
1905.499	287.12
1922.485	291.12
1939.408	291.12
1956.267	275.12
1973.063	249.12
1989.797	219.12
2006.469	230.12
2023.078	221.12
2039.627	206.12
2056.114	210.12
2072.54	222.12
2088.906	211.12
2105.211	204.12
2121.457	194.12
2137.643	180.12
2153.77	174.12
2169.838	160.12
2185.848	159.12
2201.799	146.12
2217.693	148.12
2233.529	145.12
2249.307	141.12
2265.029	132.12
2280.694	119.12
2296.302	118.12
2311.854	107.12
2327.351	121.12
2342.792	97.12
2358.178	90.12
2373.508	93.12
2388.785	86.12
2404.007	93.12
2419.174	85.12
2434.289	78.12
2449.349	68.12
2464.356	61.12
2479.311	61.12
2494.213	56.12
2509.062	59.12
2523.859	53.12
2538.605	59.12
2553.299	59.12
2567.941	50.12
2582.533	52.12
2597.073	45.12
2611.564	37.12
2626.004	29.12
2640.394	29.12
2654.734	30.12
2669.025	16.12
2683.266	18.12
2697.458	13.12
2711.602	8.12
2725.697	2.12
2739.744	9.12
2753.743	5.12
2767.695	7.12
2781.598	1.12
2795.455	2.12
2809.264	-3.88
2823.026	-1.88
2836.742	1.12
2850.412	-4.88
2864.035	-9.88
2877.613	-16.88
2891.145	-15.88
2904.631	-19.88
2918.073	-29.88
2931.469	-21.88
2944.821	-28.88
2958.128	-34.88
2971.39	-33.88
2984.609	-38.88
2997.784	-32.88
3010.915	-39.88
3024.002	-48.88
3037.046	-42.88
3050.048	-47.88
3063.006	-49.88
3075.922	-48.88
3088.795	-52.88
3101.627	-50.88
3114.416	-48.88
3127.163	-46.88
3139.869	-50.88
3152.533	-54.88
3165.157	-60.88
3177.739	-54.88
3190.28	-58.88
3202.781	-69.88
3215.241	-67.88
3227.661	-67.88
3240.041	-70.88
3252.382	-67.88
3264.682	-70.88
3276.943	-66.88
3289.165	-63.88
3301.348	-70.88
3313.492	-68.88
3325.597	-79.88
3337.663	-78.88
3349.691	-72.88
3361.681	-70.88
3373.633	-75.88
3385.547	-78.88
3397.424	-73.88
3409.263	-81.88
3421.065	-76.88
3432.829	-78.88
3444.557	-76.88
3456.247	-80.88
3467.902	-82.88
3479.519	-75.88
3491.101	-78.88
3502.646	-76.88
3514.155	-77.88
3525.629	-81.88
3537.067	-81.88
3548.469	-81.88
3559.837	-77.88
3571.169	-83.88
3582.466	-79.88
3593.728	-83.88
3604.956	-86.88
3616.149	-89.88
3627.307	-86.88
3638.432	-85.88
3649.523	-88.88
3660.579	-88.88
3671.602	-84.88
3682.591	-87.88
3693.547	-81.88
3704.47	-89.88
3715.359	-86.88
3726.216	-92.88
3737.039	-91.88
3747.83	-86.88
3758.589	-87.88
3769.315	-90.88
3780.008	-96.88
3790.67	-92.88
3801.299	-92.88
3811.897	-93.88
3822.463	-90.88
3832.998	-86.88
3843.501	-90.88
3853.973	-87.88
3864.414	-83.88
3874.823	-46.88
3885.202	94.12
3895.55	-65.88
3905.868	-87.88
3916.155	-84.88
3926.411	-88.88
3936.638	-86.88
3946.834	-87.88
3957	-85.88
3967.137	-82.88
3977.244	-89.88
3987.321	-86.88
3997.369	-86.88
4007.388	-85.88
4017.377	-82.88
4027.338	-82.88
4037.269	-87.88
4047.172	-84.88
4057.046	-86.88
4066.891	-91.88
4076.708	-93.88
4086.497	-90.88
4096.257	-91.88
4105.989	59.12
4115.694	39.12
4125.37	-93.88
4135.019	-91.88
4142.237	-97.88

File: blank 2_RamanShift_2.txt
Data from blank 2_RamanShift_2.txt Node

Date: Tue Aug 29 12:24:07 IDT 2017
User: aro
Spectrometer: QEPB0276
Trigger mode: 0
Integration Time (sec): 3.000000E1
Scans to average: 1
Electric dark correction enabled: true
Nonlinearity correction enabled: false
Boxcar width: 0
XAxis mode: Raman Shifts
Number of Pixels in Spectrum: 1044
>>>>>Begin Spectral Data<<<<<
160.701	36.75
184.826	483.75
208.845	2123.75
232.758	2272.75
256.565	2439.75
280.267	2617.75
303.865	2833.75
327.359	2981.75
350.751	3163.75
374.04	3510.75
397.228	3606.75
420.315	5949.75
443.302	3700.75
466.189	3314.75
488.978	3163.75
511.668	2282.75
534.261	1518.75
556.756	1288.75
579.155	1245.75
601.459	1220.75
623.667	1134.75
645.781	1779.75
667.8	1048.75
689.726	918.75
711.56	877.75
733.301	905.75
754.951	1141.75
776.509	1027.75
797.977	1157.75
819.355	1102.75
840.644	987.75
861.844	831.75
882.955	731.75
903.979	708.75
924.916	695.75
945.766	676.75
966.529	665.75
987.208	642.75
1007.801	668.75
1028.309	694.75
1048.734	751.75
1069.075	744.75
1089.333	722.75
1109.509	670.75
1129.602	605.75
1149.614	620.75
1169.545	655.75
1189.395	648.75
1209.165	660.75
1228.856	657.75
1248.467	630.75
1268	562.75
1287.455	531.75
1306.832	560.75
1326.132	556.75
1345.354	537.75
1364.501	519.75
1383.572	493.75
1402.567	481.75
1421.487	476.75
1440.333	480.75
1459.104	490.75
1477.802	481.75
1496.426	491.75
1514.978	534.75
1533.457	502.75
1551.864	476.75
1570.199	447.75
1588.464	439.75
1606.657	424.75
1624.78	412.75
1642.834	423.75
1660.817	435.75
1678.732	428.75
1696.577	428.75
1714.355	405.75
1732.064	381.75
1749.705	346.75
1767.28	326.75
1784.787	335.75
1802.228	329.75
1819.603	308.75
1836.913	295.75
1854.156	285.75
1871.335	291.75
1888.449	295.75
1905.499	294.75
1922.485	302.75
1939.408	301.75
1956.267	293.75
1973.063	263.75
1989.797	226.75
2006.469	234.75
2023.078	228.75
2039.627	207.75
2056.114	206.75
2072.54	216.75
2088.906	219.75
2105.211	213.75
2121.457	199.75
2137.643	183.75
2153.77	181.75
2169.838	169.75
2185.848	155.75
2201.799	154.75
2217.693	148.75
2233.529	149.75
2249.307	134.75
2265.029	131.75
2280.694	117.75
2296.302	157.75
2311.854	99.75
2327.351	112.75
2342.792	98.75
2358.178	91.75
2373.508	98.75
2388.785	89.75
2404.007	87.75
2419.174	81.75
2434.289	80.75
2449.349	69.75
2464.356	63.75
2479.311	63.75
2494.213	54.75
2509.062	51.75
2523.859	50.75
2538.605	47.75
2553.299	57.75
2567.941	54.75
2582.533	51.75
2597.073	44.75
2611.564	44.75
2626.004	35.75
2640.394	27.75
2654.734	31.75
2669.025	24.75
2683.266	21.75
2697.458	11.75
2711.602	6.75
2725.697	5.75
2739.744	9.75
2753.743	7.75
2767.695	7.75
2781.598	4.75
2795.455	-2.25
2809.264	-14.25
2823.026	-4.25
2836.742	3.75
2850.412	-13.25
2864.035	-8.25
2877.613	-22.25
2891.145	-23.25
2904.631	-26.25
2918.073	-28.25
2931.469	-30.25
2944.821	-33.25
2958.128	-33.25
2971.39	-37.25
2984.609	-42.25
2997.784	-31.25
3010.915	-41.25
3024.002	-45.25
3037.046	-44.25
3050.048	-48.25
3063.006	-53.25
3075.922	-52.25
3088.795	-55.25
3101.627	-53.25
3114.416	-46.25
3127.163	-54.25
3139.869	-53.25
3152.533	-60.25
3165.157	-59.25
3177.739	-60.25
3190.28	-66.25
3202.781	-71.25
3215.241	-72.25
3227.661	-71.25
3240.041	-71.25
3252.382	-68.25
3264.682	-71.25
3276.943	-70.25
3289.165	-66.25
3301.348	-73.25
3313.492	-73.25
3325.597	-76.25
3337.663	-82.25
3349.691	-75.25
3361.681	-78.25
3373.633	-80.25
3385.547	-78.25
3397.424	-77.25
3409.263	-78.25
3421.065	-80.25
3432.829	-78.25
3444.557	-76.25
3456.247	-84.25
3467.902	-86.25
3479.519	-78.25
3491.101	-86.25
3502.646	-80.25
3514.155	-83.25
3525.629	-86.25
3537.067	-87.25
3548.469	-88.25
3559.837	-87.25
3571.169	-89.25
3582.466	-83.25
3593.728	-83.25
3604.956	-82.25
3616.149	-92.25
3627.307	-93.25
3638.432	-90.25
3649.523	-88.25
3660.579	-90.25
3671.602	-87.25
3682.591	-86.25
3693.547	-85.25
3704.47	-95.25
3715.359	-90.25
3726.216	-93.25
3737.039	-93.25
3747.83	-95.25
3758.589	-90.25
3769.315	-95.25
3780.008	-97.25
3790.67	-93.25
3801.299	-92.25
3811.897	-91.25
3822.463	-88.25
3832.998	-88.25
3843.501	-91.25
3853.973	-85.25
3864.414	-88.25
3874.823	-45.25
3885.202	102.75
3895.55	-66.25
3905.868	-89.25
3916.155	-90.25
3926.411	-91.25
3936.638	-95.25
3946.834	-93.25
3957	-87.25
3967.137	-94.25
3977.244	-93.25
3987.321	-91.25
3997.369	-93.25
4007.388	-91.25
4017.377	-91.25
4027.338	-85.25
4037.269	-88.25
4047.172	-90.25
4057.046	-91.25
4066.891	-94.25
4076.708	-88.25
4086.497	-90.25
4096.257	-93.25
4105.989	61.75
4115.694	42.75
4125.37	-91.25
4135.019	-94.25
4142.237	-96.25