Folder: Water/Data/Raman/2017-08-29 - Alluminum 2/Aug 29 2017 - Aluminum 2 (part 10)

File: EC 110 3_RamanShift_2.txt
Data from EC 110 3_RamanShift_2.txt Node

Date: Tue Aug 29 12:33:37 IDT 2017
User: aro
Spectrometer: QEPB0276
Trigger mode: 0
Integration Time (sec): 3.000000E1
Scans to average: 1
Electric dark correction enabled: true
Nonlinearity correction enabled: false
Boxcar width: 0
XAxis mode: Raman Shifts
Number of Pixels in Spectrum: 1044
>>>>>Begin Spectral Data<<<<<
160.701	26.88
184.826	461.88
208.845	1990.88
232.758	2108.88
256.565	2202.88
280.267	2390.88
303.865	2521.88
327.359	2611.88
350.751	2717.88
374.04	2995.88
397.228	3013.88
420.315	4587.88
443.302	3082.88
466.189	2812.88
488.978	2715.88
511.668	2112.88
534.261	1552.88
556.756	1365.88
579.155	1355.88
601.459	1322.88
623.667	1254.88
645.781	1662.88
667.8	1184.88
689.726	1087.88
711.56	1059.88
733.301	1085.88
754.951	1248.88
776.509	1180.88
797.977	1252.88
819.355	1214.88
840.644	1143.88
861.844	1025.88
882.955	955.88
903.979	925.88
924.916	913.88
945.766	914.88
966.529	906.88
987.208	873.88
1007.801	892.88
1028.309	926.88
1048.734	931.88
1069.075	927.88
1089.333	929.88
1109.509	884.88
1129.602	818.88
1149.614	830.88
1169.545	857.88
1189.395	838.88
1209.165	845.88
1228.856	867.88
1248.467	838.88
1268	758.88
1287.455	747.88
1306.832	766.88
1326.132	759.88
1345.354	708.88
1364.501	703.88
1383.572	708.88
1402.567	661.88
1421.487	646.88
1440.333	673.88
1459.104	686.88
1477.802	644.88
1496.426	663.88
1514.978	700.88
1533.457	675.88
1551.864	651.88
1570.199	627.88
1588.464	602.88
1606.657	597.88
1624.78	574.88
1642.834	570.88
1660.817	594.88
1678.732	581.88
1696.577	577.88
1714.355	570.88
1732.064	538.88
1749.705	499.88
1767.28	469.88
1784.787	466.88
1802.228	470.88
1819.603	462.88
1836.913	444.88
1854.156	430.88
1871.335	430.88
1888.449	430.88
1905.499	431.88
1922.485	442.88
1939.408	442.88
1956.267	436.88
1973.063	397.88
1989.797	364.88
2006.469	362.88
2023.078	348.88
2039.627	321.88
2056.114	334.88
2072.54	330.88
2088.906	346.88
2105.211	332.88
2121.457	323.88
2137.643	307.88
2153.77	297.88
2169.838	274.88
2185.848	268.88
2201.799	259.88
2217.693	263.88
2233.529	262.88
2249.307	238.88
2265.029	237.88
2280.694	229.88
2296.302	215.88
2311.854	207.88
2327.351	211.88
2342.792	191.88
2358.178	193.88
2373.508	195.88
2388.785	190.88
2404.007	189.88
2419.174	178.88
2434.289	175.88
2449.349	164.88
2464.356	149.88
2479.311	157.88
2494.213	149.88
2509.062	162.88
2523.859	146.88
2538.605	146.88
2553.299	144.88
2567.941	147.88
2582.533	139.88
2597.073	139.88
2611.564	118.88
2626.004	117.88
2640.394	110.88
2654.734	104.88
2669.025	99.88
2683.266	82.88
2697.458	82.88
2711.602	69.88
2725.697	57.88
2739.744	63.88
2753.743	63.88
2767.695	71.88
2781.598	53.88
2795.455	55.88
2809.264	54.88
2823.026	47.88
2836.742	50.88
2850.412	44.88
2864.035	41.88
2877.613	36.88
2891.145	28.88
2904.631	22.88
2918.073	20.88
2931.469	19.88
2944.821	11.88
2958.128	4.88
2971.39	0.88
2984.609	-0.12
2997.784	2.88
3010.915	-6.12
3024.002	-9.12
3037.046	-14.12
3050.048	-17.12
3063.006	-25.12
3075.922	-16.12
3088.795	-19.12
3101.627	-21.12
3114.416	-19.12
3127.163	-17.12
3139.869	-26.12
3152.533	-28.12
3165.157	-34.12
3177.739	-32.12
3190.28	-40.12
3202.781	-44.12
3215.241	-49.12
3227.661	-49.12
3240.041	-47.12
3252.382	-50.12
3264.682	-49.12
3276.943	-48.12
3289.165	-50.12
3301.348	-51.12
3313.492	-58.12
3325.597	-63.12
3337.663	-58.12
3349.691	-60.12
3361.681	-60.12
3373.633	-59.12
3385.547	-59.12
3397.424	-59.12
3409.263	-69.12
3421.065	-66.12
3432.829	-65.12
3444.557	-67.12
3456.247	-70.12
3467.902	-74.12
3479.519	-66.12
3491.101	-73.12
3502.646	-70.12
3514.155	-72.12
3525.629	-75.12
3537.067	-69.12
3548.469	-78.12
3559.837	-62.12
3571.169	-75.12
3582.466	-75.12
3593.728	-72.12
3604.956	-73.12
3616.149	-82.12
3627.307	-81.12
3638.432	-80.12
3649.523	-87.12
3660.579	-83.12
3671.602	-83.12
3682.591	-76.12
3693.547	-79.12
3704.47	-84.12
3715.359	-79.12
3726.216	-86.12
3737.039	-81.12
3747.83	-85.12
3758.589	-81.12
3769.315	-80.12
3780.008	-89.12
3790.67	-80.12
3801.299	-83.12
3811.897	-82.12
3822.463	-77.12
3832.998	-73.12
3843.501	-81.12
3853.973	-75.12
3864.414	-82.12
3874.823	-44.12
3885.202	51.88
3895.55	-63.12
3905.868	-84.12
3916.155	-82.12
3926.411	-85.12
3936.638	-86.12
3946.834	-83.12
3957	-83.12
3967.137	-79.12
3977.244	-87.12
3987.321	-82.12
3997.369	-83.12
4007.388	-78.12
4017.377	-77.12
4027.338	-75.12
4037.269	-86.12
4047.172	-81.12
4057.046	-77.12
4066.891	-82.12
4076.708	-79.12
4086.497	-81.12
4096.257	-84.12
4105.989	39.88
4115.694	27.88
4125.37	-77.12
4135.019	-86.12
4142.237	-87.12

File: EC 110 3_RamanShift_3.txt
Data from EC 110 3_RamanShift_3.txt Node

Date: Tue Aug 29 12:34:07 IDT 2017
User: aro
Spectrometer: QEPB0276
Trigger mode: 0
Integration Time (sec): 3.000000E1
Scans to average: 1
Electric dark correction enabled: true
Nonlinearity correction enabled: false
Boxcar width: 0
XAxis mode: Raman Shifts
Number of Pixels in Spectrum: 1044
>>>>>Begin Spectral Data<<<<<
160.701	28.25
184.826	453.25
208.845	1966.25
232.758	2073.25
256.565	2176.25
280.267	2316.25
303.865	2469.25
327.359	2590.25
350.751	2675.25
374.04	2929.25
397.228	2980.25
420.315	4539.25
443.302	3046.25
466.189	2800.25
488.978	2675.25
511.668	2069.25
534.261	1499.25
556.756	1350.25
579.155	1304.25
601.459	1280.25
623.667	1224.25
645.781	1633.25
667.8	1156.25
689.726	1068.25
711.56	1038.25
733.301	1044.25
754.951	1197.25
776.509	1139.25
797.977	1229.25
819.355	1173.25
840.644	1101.25
861.844	988.25
882.955	935.25
903.979	907.25
924.916	888.25
945.766	876.25
966.529	856.25
987.208	839.25
1007.801	858.25
1028.309	892.25
1048.734	913.25
1069.075	900.25
1089.333	896.25
1109.509	845.25
1129.602	803.25
1149.614	806.25
1169.545	839.25
1189.395	816.25
1209.165	807.25
1228.856	838.25
1248.467	813.25
1268	749.25
1287.455	717.25
1306.832	754.25
1326.132	732.25
1345.354	709.25
1364.501	700.25
1383.572	689.25
1402.567	659.25
1421.487	641.25
1440.333	658.25
1459.104	656.25
1477.802	626.25
1496.426	647.25
1514.978	683.25
1533.457	660.25
1551.864	631.25
1570.199	607.25
1588.464	599.25
1606.657	571.25
1624.78	558.25
1642.834	573.25
1660.817	576.25
1678.732	568.25
1696.577	549.25
1714.355	554.25
1732.064	529.25
1749.705	481.25
1767.28	465.25
1784.787	463.25
1802.228	471.25
1819.603	440.25
1836.913	419.25
1854.156	413.25
1871.335	418.25
1888.449	426.25
1905.499	412.25
1922.485	439.25
1939.408	448.25
1956.267	418.25
1973.063	394.25
1989.797	358.25
2006.469	355.25
2023.078	349.25
2039.627	331.25
2056.114	325.25
2072.54	320.25
2088.906	341.25
2105.211	332.25
2121.457	320.25
2137.643	297.25
2153.77	295.25
2169.838	271.25
2185.848	258.25
2201.799	260.25
2217.693	255.25
2233.529	255.25
2249.307	240.25
2265.029	236.25
2280.694	223.25
2296.302	211.25
2311.854	203.25
2327.351	210.25
2342.792	190.25
2358.178	188.25
2373.508	193.25
2388.785	189.25
2404.007	183.25
2419.174	174.25
2434.289	178.25
2449.349	165.25
2464.356	152.25
2479.311	153.25
2494.213	150.25
2509.062	147.25
2523.859	146.25
2538.605	146.25
2553.299	147.25
2567.941	142.25
2582.533	138.25
2597.073	127.25
2611.564	127.25
2626.004	111.25
2640.394	114.25
2654.734	95.25
2669.025	91.25
2683.266	88.25
2697.458	80.25
2711.602	64.25
2725.697	61.25
2739.744	63.25
2753.743	60.25
2767.695	68.25
2781.598	53.25
2795.455	57.25
2809.264	45.25
2823.026	56.25
2836.742	55.25
2850.412	47.25
2864.035	39.25
2877.613	38.25
2891.145	31.25
2904.631	27.25
2918.073	20.25
2931.469	13.25
2944.821	13.25
2958.128	11.25
2971.39	2.25
2984.609	-3.75
2997.784	3.25
3010.915	-3.75
3024.002	-8.75
3037.046	-11.75
3050.048	-13.75
3063.006	-23.75
3075.922	-25.75
3088.795	-22.75
3101.627	-19.75
3114.416	-24.75
3127.163	-31.75
3139.869	-22.75
3152.533	-29.75
3165.157	-34.75
3177.739	-36.75
3190.28	-40.75
3202.781	-45.75
3215.241	-42.75
3227.661	-47.75
3240.041	-46.75
3252.382	-43.75
3264.682	-43.75
3276.943	-51.75
3289.165	-50.75
3301.348	-52.75
3313.492	-52.75
3325.597	-63.75
3337.663	-63.75
3349.691	-63.75
3361.681	-58.75
3373.633	-59.75
3385.547	-59.75
3397.424	-61.75
3409.263	-62.75
3421.065	-64.75
3432.829	-60.75
3444.557	-60.75
3456.247	-63.75
3467.902	-70.75
3479.519	-64.75
3491.101	-65.75
3502.646	-66.75
3514.155	-64.75
3525.629	-76.75
3537.067	-72.75
3548.469	-74.75
3559.837	-67.75
3571.169	-75.75
3582.466	-72.75
3593.728	-70.75
3604.956	-74.75
3616.149	-82.75
3627.307	-77.75
3638.432	-71.75
3649.523	-79.75
3660.579	-79.75
3671.602	-76.75
3682.591	-81.75
3693.547	-73.75
3704.47	-80.75
3715.359	-70.75
3726.216	-81.75
3737.039	-77.75
3747.83	-80.75
3758.589	-82.75
3769.315	-80.75
3780.008	-90.75
3790.67	-75.75
3801.299	-77.75
3811.897	-82.75
3822.463	-77.75
3832.998	-74.75
3843.501	-74.75
3853.973	-75.75
3864.414	-75.75
3874.823	-39.75
3885.202	53.25
3895.55	-66.75
3905.868	-85.75
3916.155	-80.75
3926.411	-80.75
3936.638	-85.75
3946.834	-85.75
3957	-81.75
3967.137	-79.75
3977.244	-78.75
3987.321	-76.75
3997.369	-80.75
4007.388	-71.75
4017.377	-78.75
4027.338	-75.75
4037.269	-81.75
4047.172	-77.75
4057.046	-80.75
4066.891	-79.75
4076.708	-79.75
4086.497	-81.75
4096.257	-82.75
4105.989	43.25
4115.694	28.25
4125.37	-77.75
4135.019	-80.75
4142.237	-85.75

File: EC 110 4_RamanShift_1.txt
Data from EC 110 4_RamanShift_1.txt Node

Date: Tue Aug 29 12:35:07 IDT 2017
User: aro
Spectrometer: QEPB0276
Trigger mode: 0
Integration Time (sec): 3.000000E1
Scans to average: 1
Electric dark correction enabled: true
Nonlinearity correction enabled: false
Boxcar width: 0
XAxis mode: Raman Shifts
Number of Pixels in Spectrum: 1044
>>>>>Begin Spectral Data<<<<<
160.701	32.12
184.826	415.12
208.845	1792.12
232.758	1872.12
256.565	1955.12
280.267	2065.12
303.865	2151.12
327.359	2252.12
350.751	2355.12
374.04	2587.12
397.228	2603.12
420.315	4051.12
443.302	2686.12
466.189	2456.12
488.978	2333.12
511.668	1782.12
534.261	1294.12
556.756	1133.12
579.155	1108.12
601.459	1093.12
623.667	1024.12
645.781	1402.12
667.8	982.12
689.726	873.12
711.56	845.12
733.301	856.12
754.951	1016.12
776.509	937.12
797.977	1030.12
819.355	967.12
840.644	909.12
861.844	807.12
882.955	744.12
903.979	724.12
924.916	700.12
945.766	690.12
966.529	702.12
987.208	659.12
1007.801	687.12
1028.309	717.12
1048.734	734.12
1069.075	725.12
1089.333	705.12
1109.509	683.12
1129.602	636.12
1149.614	651.12
1169.545	652.12
1189.395	645.12
1209.165	647.12
1228.856	679.12
1248.467	646.12
1268	588.12
1287.455	563.12
1306.832	587.12
1326.132	578.12
1345.354	542.12
1364.501	545.12
1383.572	542.12
1402.567	509.12
1421.487	492.12
1440.333	505.12
1459.104	502.12
1477.802	488.12
1496.426	505.12
1514.978	547.12
1533.457	512.12
1551.864	483.12
1570.199	460.12
1588.464	455.12
1606.657	446.12
1624.78	423.12
1642.834	448.12
1660.817	448.12
1678.732	437.12
1696.577	446.12
1714.355	429.12
1732.064	406.12
1749.705	364.12
1767.28	351.12
1784.787	344.12
1802.228	351.12
1819.603	332.12
1836.913	311.12
1854.156	309.12
1871.335	320.12
1888.449	324.12
1905.499	305.12
1922.485	320.12
1939.408	330.12
1956.267	311.12
1973.063	290.12
1989.797	262.12
2006.469	252.12
2023.078	242.12
2039.627	238.12
2056.114	238.12
2072.54	246.12
2088.906	243.12
2105.211	238.12
2121.457	229.12
2137.643	210.12
2153.77	201.12
2169.838	190.12
2185.848	189.12
2201.799	176.12
2217.693	173.12
2233.529	170.12
2249.307	167.12
2265.029	149.12
2280.694	141.12
2296.302	143.12
2311.854	136.12
2327.351	138.12
2342.792	132.12
2358.178	117.12
2373.508	123.12
2388.785	118.12
2404.007	115.12
2419.174	114.12
2434.289	119.12
2449.349	96.12
2464.356	95.12
2479.311	93.12
2494.213	85.12
2509.062	88.12
2523.859	86.12
2538.605	88.12
2553.299	84.12
2567.941	83.12
2582.533	78.12
2597.073	72.12
2611.564	69.12
2626.004	61.12
2640.394	63.12
2654.734	52.12
2669.025	46.12
2683.266	54.12
2697.458	39.12
2711.602	25.12
2725.697	29.12
2739.744	33.12
2753.743	33.12
2767.695	37.12
2781.598	28.12
2795.455	23.12
2809.264	22.12
2823.026	24.12
2836.742	27.12
2850.412	14.12
2864.035	17.12
2877.613	8.12
2891.145	0.12
2904.631	-1.88
2918.073	-2.88
2931.469	-5.88
2944.821	-11.88
2958.128	-11.88
2971.39	-13.88
2984.609	-18.88
2997.784	-11.88
3010.915	-22.88
3024.002	-18.88
3037.046	-24.88
3050.048	-28.88
3063.006	-36.88
3075.922	-29.88
3088.795	-30.88
3101.627	-27.88
3114.416	-29.88
3127.163	-34.88
3139.869	-27.88
3152.533	-38.88
3165.157	-39.88
3177.739	-34.88
3190.28	-40.88
3202.781	-44.88
3215.241	-51.88
3227.661	-50.88
3240.041	-47.88
3252.382	-48.88
3264.682	-48.88
3276.943	-57.88
3289.165	-53.88
3301.348	-50.88
3313.492	-54.88
3325.597	-60.88
3337.663	-61.88
3349.691	-60.88
3361.681	-54.88
3373.633	-60.88
3385.547	-59.88
3397.424	-51.88
3409.263	-59.88
3421.065	-58.88
3432.829	-60.88
3444.557	-54.88
3456.247	-62.88
3467.902	-68.88
3479.519	-61.88
3491.101	-64.88
3502.646	-64.88
3514.155	-57.88
3525.629	-71.88
3537.067	-68.88
3548.469	-69.88
3559.837	-58.88
3571.169	-68.88
3582.466	-61.88
3593.728	-63.88
3604.956	-66.88
3616.149	-65.88
3627.307	-71.88
3638.432	-71.88
3649.523	-68.88
3660.579	-66.88
3671.602	-68.88
3682.591	-67.88
3693.547	-63.88
3704.47	-71.88
3715.359	-70.88
3726.216	-74.88
3737.039	-70.88
3747.83	-75.88
3758.589	-73.88
3769.315	-73.88
3780.008	-78.88
3790.67	-74.88
3801.299	-75.88
3811.897	-72.88
3822.463	-68.88
3832.998	-65.88
3843.501	-68.88
3853.973	-63.88
3864.414	-72.88
3874.823	-38.88
3885.202	70.12
3895.55	-58.88
3905.868	-69.88
3916.155	-70.88
3926.411	-71.88
3936.638	-76.88
3946.834	-70.88
3957	-70.88
3967.137	-68.88
3977.244	-75.88
3987.321	-69.88
3997.369	-74.88
4007.388	-66.88
4017.377	-63.88
4027.338	-67.88
4037.269	-72.88
4047.172	-70.88
4057.046	-72.88
4066.891	-71.88
4076.708	-71.88
4086.497	-77.88
4096.257	-72.88
4105.989	45.12
4115.694	32.12
4125.37	-73.88
4135.019	-74.88
4142.237	-78.88

File: EC 110 4_RamanShift_2.txt
Data from EC 110 4_RamanShift_2.txt Node

Date: Tue Aug 29 12:35:37 IDT 2017
User: aro
Spectrometer: QEPB0276
Trigger mode: 0
Integration Time (sec): 3.000000E1
Scans to average: 1
Electric dark correction enabled: true
Nonlinearity correction enabled: false
Boxcar width: 0
XAxis mode: Raman Shifts
Number of Pixels in Spectrum: 1044
>>>>>Begin Spectral Data<<<<<
160.701	27.75
184.826	398.75
208.845	1728.75
232.758	1795.75
256.565	1892.75
280.267	1989.75
303.865	2106.75
327.359	2188.75
350.751	2296.75
374.04	2521.75
397.228	2571.75
420.315	3962.75
443.302	2635.75
466.189	2369.75
488.978	2278.75
511.668	1713.75
534.261	1226.75
556.756	1082.75
579.155	1053.75
601.459	1029.75
623.667	983.75
645.781	1341.75
667.8	931.75
689.726	839.75
711.56	804.75
733.301	812.75
754.951	970.75
776.509	889.75
797.977	979.75
819.355	939.75
840.644	867.75
861.844	765.75
882.955	707.75
903.979	675.75
924.916	677.75
945.766	664.75
966.529	643.75
987.208	632.75
1007.801	652.75
1028.309	672.75
1048.734	702.75
1069.075	678.75
1089.333	683.75
1109.509	649.75
1129.602	590.75
1149.614	610.75
1169.545	633.75
1189.395	622.75
1209.165	640.75
1228.856	640.75
1248.467	615.75
1268	559.75
1287.455	540.75
1306.832	559.75
1326.132	560.75
1345.354	525.75
1364.501	509.75
1383.572	499.75
1402.567	480.75
1421.487	469.75
1440.333	483.75
1459.104	491.75
1477.802	479.75
1496.426	485.75
1514.978	508.75
1533.457	488.75
1551.864	470.75
1570.199	451.75
1588.464	434.75
1606.657	428.75
1624.78	409.75
1642.834	422.75
1660.817	435.75
1678.732	422.75
1696.577	423.75
1714.355	427.75
1732.064	387.75
1749.705	363.75
1767.28	339.75
1784.787	327.75
1802.228	348.75
1819.603	317.75
1836.913	305.75
1854.156	289.75
1871.335	313.75
1888.449	307.75
1905.499	294.75
1922.485	315.75
1939.408	316.75
1956.267	303.75
1973.063	281.75
1989.797	246.75
2006.469	253.75
2023.078	240.75
2039.627	223.75
2056.114	222.75
2072.54	232.75
2088.906	231.75
2105.211	223.75
2121.457	216.75
2137.643	205.75
2153.77	196.75
2169.838	186.75
2185.848	177.75
2201.799	172.75
2217.693	168.75
2233.529	172.75
2249.307	159.75
2265.029	153.75
2280.694	142.75
2296.302	133.75
2311.854	129.75
2327.351	146.75
2342.792	122.75
2358.178	118.75
2373.508	118.75
2388.785	115.75
2404.007	111.75
2419.174	108.75
2434.289	103.75
2449.349	95.75
2464.356	89.75
2479.311	91.75
2494.213	83.75
2509.062	84.75
2523.859	83.75
2538.605	77.75
2553.299	78.75
2567.941	81.75
2582.533	70.75
2597.073	63.75
2611.564	68.75
2626.004	59.75
2640.394	56.75
2654.734	54.75
2669.025	46.75
2683.266	42.75
2697.458	33.75
2711.602	25.75
2725.697	21.75
2739.744	29.75
2753.743	25.75
2767.695	32.75
2781.598	21.75
2795.455	24.75
2809.264	18.75
2823.026	22.75
2836.742	24.75
2850.412	18.75
2864.035	10.75
2877.613	9.75
2891.145	4.75
2904.631	-7.25
2918.073	-12.25
2931.469	-4.25
2944.821	-11.25
2958.128	-15.25
2971.39	-16.25
2984.609	-18.25
2997.784	-16.25
3010.915	-21.25
3024.002	-27.25
3037.046	-32.25
3050.048	-32.25
3063.006	-35.25
3075.922	-36.25
3088.795	-39.25
3101.627	-32.25
3114.416	-28.25
3127.163	-39.25
3139.869	-34.25
3152.533	-36.25
3165.157	-37.25
3177.739	-39.25
3190.28	-46.25
3202.781	-45.25
3215.241	-43.25
3227.661	-51.25
3240.041	-48.25
3252.382	-47.25
3264.682	-53.25
3276.943	-54.25
3289.165	-58.25
3301.348	-56.25
3313.492	-56.25
3325.597	-62.25
3337.663	-68.25
3349.691	-62.25
3361.681	-59.25
3373.633	-54.25
3385.547	-65.25
3397.424	-59.25
3409.263	-59.25
3421.065	-55.25
3432.829	-55.25
3444.557	-59.25
3456.247	-60.25
3467.902	-63.25
3479.519	-59.25
3491.101	-65.25
3502.646	-64.25
3514.155	-62.25
3525.629	-69.25
3537.067	-66.25
3548.469	-68.25
3559.837	-63.25
3571.169	-70.25
3582.466	-67.25
3593.728	-69.25
3604.956	-66.25
3616.149	-75.25
3627.307	-74.25
3638.432	-66.25
3649.523	-75.25
3660.579	-68.25
3671.602	-72.25
3682.591	-70.25
3693.547	-68.25
3704.47	-74.25
3715.359	-67.25
3726.216	-76.25
3737.039	-74.25
3747.83	-75.25
3758.589	-76.25
3769.315	-76.25
3780.008	-82.25
3790.67	-71.25
3801.299	-71.25
3811.897	-75.25
3822.463	-73.25
3832.998	-74.25
3843.501	-69.25
3853.973	-72.25
3864.414	-75.25
3874.823	-37.25
3885.202	68.75
3895.55	-61.25
3905.868	-72.25
3916.155	-74.25
3926.411	-73.25
3936.638	-80.25
3946.834	-71.25
3957	-76.25
3967.137	-72.25
3977.244	-77.25
3987.321	-71.25
3997.369	-75.25
4007.388	-69.25
4017.377	-68.25
4027.338	-65.25
4037.269	-69.25
4047.172	-72.25
4057.046	-69.25
4066.891	-73.25
4076.708	-75.25
4086.497	-73.25
4096.257	-73.25
4105.989	43.75
4115.694	28.75
4125.37	-77.25
4135.019	-75.25
4142.237	-78.25

File: EC 110 4_RamanShift_3.txt
Data from EC 110 4_RamanShift_3.txt Node

Date: Tue Aug 29 12:36:07 IDT 2017
User: aro
Spectrometer: QEPB0276
Trigger mode: 0
Integration Time (sec): 3.000000E1
Scans to average: 1
Electric dark correction enabled: true
Nonlinearity correction enabled: false
Boxcar width: 0
XAxis mode: Raman Shifts
Number of Pixels in Spectrum: 1044
>>>>>Begin Spectral Data<<<<<
160.701	28.88
184.826	390.88
208.845	1714.88
232.758	1778.88
256.565	1892.88
280.267	1959.88
303.865	2079.88
327.359	2159.88
350.751	2260.88
374.04	2494.88
397.228	2525.88
420.315	3924.88
443.302	2596.88
466.189	2334.88
488.978	2254.88
511.668	1708.88
534.261	1207.88
556.756	1056.88
579.155	1027.88
601.459	1004.88
623.667	949.88
645.781	1320.88
667.8	908.88
689.726	812.88
711.56	782.88
733.301	802.88
754.951	950.88
776.509	878.88
797.977	955.88
819.355	908.88
840.644	847.88
861.844	746.88
882.955	687.88
903.979	657.88
924.916	654.88
945.766	645.88
966.529	638.88
987.208	607.88
1007.801	628.88
1028.309	668.88
1048.734	681.88
1069.075	679.88
1089.333	658.88
1109.509	625.88
1129.602	588.88
1149.614	590.88
1169.545	618.88
1189.395	612.88
1209.165	594.88
1228.856	613.88
1248.467	607.88
1268	545.88
1287.455	525.88
1306.832	541.88
1326.132	529.88
1345.354	518.88
1364.501	512.88
1383.572	502.88
1402.567	473.88
1421.487	452.88
1440.333	468.88
1459.104	489.88
1477.802	469.88
1496.426	490.88
1514.978	501.88
1533.457	477.88
1551.864	458.88
1570.199	433.88
1588.464	424.88
1606.657	424.88
1624.78	397.88
1642.834	416.88
1660.817	422.88
1678.732	412.88
1696.577	413.88
1714.355	404.88
1732.064	374.88
1749.705	349.88
1767.28	323.88
1784.787	323.88
1802.228	335.88
1819.603	312.88
1836.913	292.88
1854.156	302.88
1871.335	298.88
1888.449	295.88
1905.499	291.88
1922.485	312.88
1939.408	316.88
1956.267	297.88
1973.063	265.88
1989.797	241.88
2006.469	244.88
2023.078	239.88
2039.627	221.88
2056.114	223.88
2072.54	227.88
2088.906	239.88
2105.211	233.88
2121.457	214.88
2137.643	200.88
2153.77	195.88
2169.838	172.88
2185.848	163.88
2201.799	166.88
2217.693	160.88
2233.529	165.88
2249.307	152.88
2265.029	141.88
2280.694	137.88
2296.302	135.88
2311.854	121.88
2327.351	128.88
2342.792	111.88
2358.178	109.88
2373.508	114.88
2388.785	104.88
2404.007	102.88
2419.174	103.88
2434.289	97.88
2449.349	87.88
2464.356	80.88
2479.311	82.88
2494.213	78.88
2509.062	86.88
2523.859	78.88
2538.605	72.88
2553.299	68.88
2567.941	76.88
2582.533	71.88
2597.073	63.88
2611.564	64.88
2626.004	46.88
2640.394	56.88
2654.734	42.88
2669.025	40.88
2683.266	36.88
2697.458	24.88
2711.602	21.88
2725.697	19.88
2739.744	34.88
2753.743	24.88
2767.695	25.88
2781.598	19.88
2795.455	19.88
2809.264	10.88
2823.026	13.88
2836.742	12.88
2850.412	7.88
2864.035	6.88
2877.613	4.88
2891.145	-1.12
2904.631	-5.12
2918.073	-13.12
2931.469	-7.12
2944.821	-11.12
2958.128	-19.12
2971.39	-19.12
2984.609	-21.12
2997.784	-16.12
3010.915	-21.12
3024.002	-25.12
3037.046	-25.12
3050.048	-35.12
3063.006	-36.12
3075.922	-36.12
3088.795	-43.12
3101.627	-32.12
3114.416	-37.12
3127.163	-37.12
3139.869	-40.12
3152.533	-44.12
3165.157	-49.12
3177.739	-48.12
3190.28	-48.12
3202.781	-52.12
3215.241	-58.12
3227.661	-54.12
3240.041	-55.12
3252.382	-54.12
3264.682	-53.12
3276.943	-58.12
3289.165	-55.12
3301.348	-61.12
3313.492	-61.12
3325.597	-64.12
3337.663	-63.12
3349.691	-63.12
3361.681	-60.12
3373.633	-60.12
3385.547	-63.12
3397.424	-53.12
3409.263	-59.12
3421.065	-60.12
3432.829	-61.12
3444.557	-60.12
3456.247	-64.12
3467.902	-71.12
3479.519	-63.12
3491.101	-66.12
3502.646	-67.12
3514.155	-67.12
3525.629	-75.12
3537.067	-72.12
3548.469	-74.12
3559.837	-66.12
3571.169	-72.12
3582.466	-65.12
3593.728	-65.12
3604.956	-69.12
3616.149	-78.12
3627.307	-76.12
3638.432	-75.12
3649.523	-80.12
3660.579	-72.12
3671.602	-72.12
3682.591	-76.12
3693.547	-75.12
3704.47	-81.12
3715.359	-73.12
3726.216	-77.12
3737.039	-77.12
3747.83	-76.12
3758.589	-76.12
3769.315	-79.12
3780.008	-83.12
3790.67	-79.12
3801.299	-80.12
3811.897	-78.12
3822.463	-80.12
3832.998	-71.12
3843.501	-70.12
3853.973	-69.12
3864.414	-77.12
3874.823	-33.12
3885.202	66.88
3895.55	-61.12
3905.868	-76.12
3916.155	-72.12
3926.411	-73.12
3936.638	-79.12
3946.834	-75.12
3957	-74.12
3967.137	-79.12
3977.244	-81.12
3987.321	-74.12
3997.369	-78.12
4007.388	-71.12
4017.377	-75.12
4027.338	-75.12
4037.269	-75.12
4047.172	-79.12
4057.046	-72.12
4066.891	-80.12
4076.708	-77.12
4086.497	-79.12
4096.257	-76.12
4105.989	42.88
4115.694	25.88
4125.37	-78.12
4135.019	-76.12
4142.237	-79.12