Folder: Water/Data/Raman/2017-08-29 - Alluminum 2/Aug 29 2017 - Aluminum 2 (part 12)

File: water 1_RamanShift_3.txt
Data from water 1_RamanShift_3.txt Node

Date: Tue Aug 29 12:03:37 IDT 2017
User: aro
Spectrometer: QEPB0276
Trigger mode: 0
Integration Time (sec): 3.000000E1
Scans to average: 1
Electric dark correction enabled: true
Nonlinearity correction enabled: false
Boxcar width: 0
XAxis mode: Raman Shifts
Number of Pixels in Spectrum: 1044
>>>>>Begin Spectral Data<<<<<
160.701	50.38
184.826	606.38
208.845	2599.38
232.758	2708.38
256.565	2903.38
280.267	3100.38
303.865	3246.38
327.359	3384.38
350.751	3560.38
374.04	4002.38
397.228	4036.38
420.315	6825.38
443.302	4169.38
466.189	3728.38
488.978	3532.38
511.668	2567.38
534.261	1684.38
556.756	1407.38
579.155	1365.38
601.459	1325.38
623.667	1230.38
645.781	1989.38
667.8	1149.38
689.726	983.38
711.56	941.38
733.301	964.38
754.951	1242.38
776.509	1114.38
797.977	1260.38
819.355	1203.38
840.644	1048.38
861.844	879.38
882.955	769.38
903.979	737.38
924.916	721.38
945.766	716.38
966.529	691.38
987.208	658.38
1007.801	690.38
1028.309	730.38
1048.734	774.38
1069.075	777.38
1089.333	744.38
1109.509	703.38
1129.602	633.38
1149.614	636.38
1169.545	669.38
1189.395	662.38
1209.165	665.38
1228.856	671.38
1248.467	649.38
1268	562.38
1287.455	556.38
1306.832	559.38
1326.132	549.38
1345.354	529.38
1364.501	524.38
1383.572	515.38
1402.567	481.38
1421.487	459.38
1440.333	476.38
1459.104	494.38
1477.802	481.38
1496.426	500.38
1514.978	536.38
1533.457	507.38
1551.864	480.38
1570.199	462.38
1588.464	443.38
1606.657	434.38
1624.78	429.38
1642.834	433.38
1660.817	445.38
1678.732	432.38
1696.577	427.38
1714.355	434.38
1732.064	391.38
1749.705	357.38
1767.28	339.38
1784.787	332.38
1802.228	332.38
1819.603	316.38
1836.913	299.38
1854.156	288.38
1871.335	296.38
1888.449	299.38
1905.499	302.38
1922.485	301.38
1939.408	310.38
1956.267	287.38
1973.063	259.38
1989.797	240.38
2006.469	228.38
2023.078	226.38
2039.627	207.38
2056.114	217.38
2072.54	216.38
2088.906	225.38
2105.211	219.38
2121.457	197.38
2137.643	185.38
2153.77	176.38
2169.838	164.38
2185.848	150.38
2201.799	148.38
2217.693	147.38
2233.529	149.38
2249.307	141.38
2265.029	133.38
2280.694	115.38
2296.302	107.38
2311.854	107.38
2327.351	110.38
2342.792	88.38
2358.178	81.38
2373.508	78.38
2388.785	76.38
2404.007	78.38
2419.174	74.38
2434.289	66.38
2449.349	56.38
2464.356	51.38
2479.311	48.38
2494.213	52.38
2509.062	57.38
2523.859	41.38
2538.605	52.38
2553.299	48.38
2567.941	36.38
2582.533	40.38
2597.073	31.38
2611.564	23.38
2626.004	13.38
2640.394	10.38
2654.734	13.38
2669.025	5.38
2683.266	2.38
2697.458	-4.62
2711.602	-8.62
2725.697	-11.62
2739.744	-7.62
2753.743	-5.62
2767.695	-0.62
2781.598	-12.62
2795.455	-16.62
2809.264	-27.62
2823.026	-13.62
2836.742	-19.62
2850.412	-30.62
2864.035	-26.62
2877.613	-33.62
2891.145	-34.62
2904.631	-37.62
2918.073	-48.62
2931.469	-41.62
2944.821	-47.62
2958.128	-50.62
2971.39	-52.62
2984.609	-58.62
2997.784	-47.62
3010.915	-58.62
3024.002	-64.62
3037.046	-63.62
3050.048	-71.62
3063.006	-73.62
3075.922	-73.62
3088.795	-74.62
3101.627	-70.62
3114.416	-70.62
3127.163	-68.62
3139.869	-75.62
3152.533	-76.62
3165.157	-78.62
3177.739	-77.62
3190.28	-79.62
3202.781	-86.62
3215.241	-92.62
3227.661	-91.62
3240.041	-88.62
3252.382	-85.62
3264.682	-91.62
3276.943	-93.62
3289.165	-91.62
3301.348	-91.62
3313.492	-94.62
3325.597	-99.62
3337.663	-103.62
3349.691	-100.62
3361.681	-106.62
3373.633	-97.62
3385.547	-96.62
3397.424	-95.62
3409.263	-101.62
3421.065	-99.62
3432.829	-96.62
3444.557	-98.62
3456.247	-102.62
3467.902	-108.62
3479.519	-100.62
3491.101	-104.62
3502.646	-101.62
3514.155	-101.62
3525.629	-111.62
3537.067	-110.62
3548.469	-111.62
3559.837	-103.62
3571.169	-110.62
3582.466	-104.62
3593.728	-105.62
3604.956	-107.62
3616.149	-107.62
3627.307	-106.62
3638.432	-112.62
3649.523	-114.62
3660.579	-115.62
3671.602	-112.62
3682.591	-113.62
3693.547	-111.62
3704.47	-119.62
3715.359	-111.62
3726.216	-113.62
3737.039	-116.62
3747.83	-115.62
3758.589	-112.62
3769.315	-113.62
3780.008	-120.62
3790.67	-115.62
3801.299	-114.62
3811.897	-116.62
3822.463	-116.62
3832.998	-113.62
3843.501	-113.62
3853.973	-114.62
3864.414	-107.62
3874.823	-46.62
3885.202	129.38
3895.55	-79.62
3905.868	-111.62
3916.155	-113.62
3926.411	-110.62
3936.638	-118.62
3946.834	-116.62
3957	-112.62
3967.137	-111.62
3977.244	-116.62
3987.321	-113.62
3997.369	-117.62
4007.388	-113.62
4017.377	-109.62
4027.338	-112.62
4037.269	-111.62
4047.172	-115.62
4057.046	-110.62
4066.891	-116.62
4076.708	-111.62
4086.497	-116.62
4096.257	-121.62
4105.989	80.38
4115.694	55.38
4125.37	-115.62
4135.019	-119.62
4142.237	-122.62

File: water 2_RamanShift_1.txt
Data from water 2_RamanShift_1.txt Node

Date: Tue Aug 29 12:04:37 IDT 2017
User: aro
Spectrometer: QEPB0276
Trigger mode: 0
Integration Time (sec): 3.000000E1
Scans to average: 1
Electric dark correction enabled: true
Nonlinearity correction enabled: false
Boxcar width: 0
XAxis mode: Raman Shifts
Number of Pixels in Spectrum: 1044
>>>>>Begin Spectral Data<<<<<
160.701	36.25
184.826	421.25
208.845	1819.25
232.758	1961.25
256.565	2121.25
280.267	2293.25
303.865	2442.25
327.359	2553.25
350.751	2674.25
374.04	2984.25
397.228	2993.25
420.315	4707.25
443.302	3078.25
466.189	2812.25
488.978	2702.25
511.668	2023.25
534.261	1431.25
556.756	1244.25
579.155	1223.25
601.459	1193.25
623.667	1121.25
645.781	1594.25
667.8	1067.25
689.726	948.25
711.56	920.25
733.301	945.25
754.951	1109.25
776.509	1044.25
797.977	1146.25
819.355	1090.25
840.644	1024.25
861.844	869.25
882.955	810.25
903.979	799.25
924.916	774.25
945.766	772.25
966.529	755.25
987.208	720.25
1007.801	755.25
1028.309	780.25
1048.734	799.25
1069.075	797.25
1089.333	778.25
1109.509	755.25
1129.602	697.25
1149.614	700.25
1169.545	730.25
1189.395	724.25
1209.165	728.25
1228.856	739.25
1248.467	706.25
1268	654.25
1287.455	634.25
1306.832	642.25
1326.132	645.25
1345.354	611.25
1364.501	604.25
1383.572	616.25
1402.567	565.25
1421.487	542.25
1440.333	560.25
1459.104	571.25
1477.802	548.25
1496.426	560.25
1514.978	594.25
1533.457	588.25
1551.864	568.25
1570.199	530.25
1588.464	528.25
1606.657	505.25
1624.78	485.25
1642.834	496.25
1660.817	504.25
1678.732	498.25
1696.577	507.25
1714.355	502.25
1732.064	469.25
1749.705	428.25
1767.28	407.25
1784.787	418.25
1802.228	428.25
1819.603	406.25
1836.913	393.25
1854.156	377.25
1871.335	377.25
1888.449	371.25
1905.499	376.25
1922.485	409.25
1939.408	405.25
1956.267	387.25
1973.063	346.25
1989.797	317.25
2006.469	304.25
2023.078	306.25
2039.627	289.25
2056.114	292.25
2072.54	309.25
2088.906	312.25
2105.211	301.25
2121.457	289.25
2137.643	272.25
2153.77	256.25
2169.838	232.25
2185.848	221.25
2201.799	225.25
2217.693	213.25
2233.529	214.25
2249.307	206.25
2265.029	200.25
2280.694	182.25
2296.302	182.25
2311.854	167.25
2327.351	184.25
2342.792	160.25
2358.178	151.25
2373.508	149.25
2388.785	140.25
2404.007	144.25
2419.174	133.25
2434.289	131.25
2449.349	121.25
2464.356	112.25
2479.311	116.25
2494.213	114.25
2509.062	116.25
2523.859	116.25
2538.605	105.25
2553.299	109.25
2567.941	109.25
2582.533	104.25
2597.073	92.25
2611.564	93.25
2626.004	79.25
2640.394	85.25
2654.734	74.25
2669.025	58.25
2683.266	60.25
2697.458	51.25
2711.602	40.25
2725.697	36.25
2739.744	50.25
2753.743	47.25
2767.695	50.25
2781.598	31.25
2795.455	35.25
2809.264	30.25
2823.026	36.25
2836.742	39.25
2850.412	25.25
2864.035	27.25
2877.613	11.25
2891.145	15.25
2904.631	5.25
2918.073	11.25
2931.469	1.25
2944.821	-5.75
2958.128	-9.75
2971.39	-11.75
2984.609	-17.75
2997.784	-7.75
3010.915	-13.75
3024.002	-25.75
3037.046	-25.75
3050.048	-35.75
3063.006	-30.75
3075.922	-21.75
3088.795	-37.75
3101.627	-25.75
3114.416	-27.75
3127.163	-30.75
3139.869	-31.75
3152.533	-37.75
3165.157	-40.75
3177.739	-42.75
3190.28	-48.75
3202.781	-50.75
3215.241	-53.75
3227.661	-52.75
3240.041	-52.75
3252.382	-48.75
3264.682	-50.75
3276.943	-54.75
3289.165	-52.75
3301.348	-54.75
3313.492	-57.75
3325.597	-67.75
3337.663	-69.75
3349.691	-69.75
3361.681	-62.75
3373.633	-63.75
3385.547	-64.75
3397.424	-58.75
3409.263	-66.75
3421.065	-68.75
3432.829	-66.75
3444.557	-63.75
3456.247	-72.75
3467.902	-74.75
3479.519	-63.75
3491.101	-70.75
3502.646	-70.75
3514.155	-73.75
3525.629	-78.75
3537.067	-71.75
3548.469	-74.75
3559.837	-65.75
3571.169	-73.75
3582.466	-68.75
3593.728	-68.75
3604.956	-76.75
3616.149	-81.75
3627.307	-77.75
3638.432	-79.75
3649.523	-80.75
3660.579	-77.75
3671.602	-77.75
3682.591	-74.75
3693.547	-74.75
3704.47	-82.75
3715.359	-79.75
3726.216	-83.75
3737.039	-80.75
3747.83	-80.75
3758.589	-80.75
3769.315	-83.75
3780.008	-88.75
3790.67	-79.75
3801.299	-78.75
3811.897	-82.75
3822.463	-79.75
3832.998	-78.75
3843.501	-77.75
3853.973	-80.75
3864.414	-73.75
3874.823	-37.75
3885.202	74.25
3895.55	-55.75
3905.868	-75.75
3916.155	-80.75
3926.411	-77.75
3936.638	-86.75
3946.834	-80.75
3957	-82.75
3967.137	-79.75
3977.244	-82.75
3987.321	-76.75
3997.369	-80.75
4007.388	-73.75
4017.377	-73.75
4027.338	-74.75
4037.269	-80.75
4047.172	-72.75
4057.046	-80.75
4066.891	-79.75
4076.708	-84.75
4086.497	-83.75
4096.257	-81.75
4105.989	61.25
4115.694	28.25
4125.37	-84.75
4135.019	-84.75
4142.237	-87.75

File: water 2_RamanShift_2.txt
Data from water 2_RamanShift_2.txt Node

Date: Tue Aug 29 12:05:07 IDT 2017
User: aro
Spectrometer: QEPB0276
Trigger mode: 0
Integration Time (sec): 3.000000E1
Scans to average: 1
Electric dark correction enabled: true
Nonlinearity correction enabled: false
Boxcar width: 0
XAxis mode: Raman Shifts
Number of Pixels in Spectrum: 1044
>>>>>Begin Spectral Data<<<<<
160.701	28.88
184.826	426.88
208.845	1799.88
232.758	1946.88
256.565	2101.88
280.267	2252.88
303.865	2430.88
327.359	2540.88
350.751	2653.88
374.04	2945.88
397.228	2997.88
420.315	4720.88
443.302	3075.88
466.189	2782.88
488.978	2678.88
511.668	2017.88
534.261	1401.88
556.756	1222.88
579.155	1208.88
601.459	1164.88
623.667	1119.88
645.781	1567.88
667.8	1029.88
689.726	945.88
711.56	913.88
733.301	930.88
754.951	1094.88
776.509	1027.88
797.977	1129.88
819.355	1084.88
840.644	987.88
861.844	871.88
882.955	809.88
903.979	779.88
924.916	764.88
945.766	746.88
966.529	745.88
987.208	712.88
1007.801	747.88
1028.309	776.88
1048.734	791.88
1069.075	801.88
1089.333	783.88
1109.509	743.88
1129.602	682.88
1149.614	696.88
1169.545	721.88
1189.395	712.88
1209.165	714.88
1228.856	727.88
1248.467	705.88
1268	636.88
1287.455	619.88
1306.832	640.88
1326.132	628.88
1345.354	607.88
1364.501	593.88
1383.572	591.88
1402.567	551.88
1421.487	541.88
1440.333	567.88
1459.104	572.88
1477.802	558.88
1496.426	567.88
1514.978	608.88
1533.457	584.88
1551.864	563.88
1570.199	529.88
1588.464	510.88
1606.657	497.88
1624.78	482.88
1642.834	488.88
1660.817	517.88
1678.732	506.88
1696.577	499.88
1714.355	502.88
1732.064	472.88
1749.705	431.88
1767.28	414.88
1784.787	414.88
1802.228	426.88
1819.603	412.88
1836.913	381.88
1854.156	372.88
1871.335	378.88
1888.449	372.88
1905.499	374.88
1922.485	400.88
1939.408	400.88
1956.267	391.88
1973.063	349.88
1989.797	316.88
2006.469	308.88
2023.078	298.88
2039.627	292.88
2056.114	287.88
2072.54	304.88
2088.906	315.88
2105.211	300.88
2121.457	276.88
2137.643	265.88
2153.77	260.88
2169.838	238.88
2185.848	234.88
2201.799	225.88
2217.693	221.88
2233.529	223.88
2249.307	208.88
2265.029	201.88
2280.694	179.88
2296.302	178.88
2311.854	171.88
2327.351	181.88
2342.792	155.88
2358.178	146.88
2373.508	149.88
2388.785	139.88
2404.007	136.88
2419.174	132.88
2434.289	133.88
2449.349	124.88
2464.356	116.88
2479.311	117.88
2494.213	108.88
2509.062	118.88
2523.859	112.88
2538.605	114.88
2553.299	103.88
2567.941	107.88
2582.533	98.88
2597.073	90.88
2611.564	86.88
2626.004	77.88
2640.394	74.88
2654.734	67.88
2669.025	53.88
2683.266	62.88
2697.458	52.88
2711.602	41.88
2725.697	43.88
2739.744	45.88
2753.743	42.88
2767.695	51.88
2781.598	39.88
2795.455	43.88
2809.264	33.88
2823.026	40.88
2836.742	40.88
2850.412	31.88
2864.035	30.88
2877.613	18.88
2891.145	16.88
2904.631	9.88
2918.073	2.88
2931.469	1.88
2944.821	-3.12
2958.128	-4.12
2971.39	-5.12
2984.609	-13.12
2997.784	-7.12
3010.915	-10.12
3024.002	-20.12
3037.046	-20.12
3050.048	-26.12
3063.006	-30.12
3075.922	-23.12
3088.795	-29.12
3101.627	-24.12
3114.416	-30.12
3127.163	-32.12
3139.869	-28.12
3152.533	-31.12
3165.157	-35.12
3177.739	-39.12
3190.28	-43.12
3202.781	-45.12
3215.241	-45.12
3227.661	-49.12
3240.041	-42.12
3252.382	-52.12
3264.682	-54.12
3276.943	-46.12
3289.165	-55.12
3301.348	-59.12
3313.492	-59.12
3325.597	-62.12
3337.663	-68.12
3349.691	-67.12
3361.681	-55.12
3373.633	-57.12
3385.547	-58.12
3397.424	-57.12
3409.263	-62.12
3421.065	-61.12
3432.829	-61.12
3444.557	-66.12
3456.247	-67.12
3467.902	-69.12
3479.519	-63.12
3491.101	-70.12
3502.646	-70.12
3514.155	-64.12
3525.629	-70.12
3537.067	-68.12
3548.469	-75.12
3559.837	-63.12
3571.169	-69.12
3582.466	-67.12
3593.728	-64.12
3604.956	-73.12
3616.149	-74.12
3627.307	-78.12
3638.432	-80.12
3649.523	-79.12
3660.579	-76.12
3671.602	-76.12
3682.591	-77.12
3693.547	-75.12
3704.47	-85.12
3715.359	-75.12
3726.216	-79.12
3737.039	-72.12
3747.83	-79.12
3758.589	-80.12
3769.315	-4.12
3780.008	-86.12
3790.67	-81.12
3801.299	-76.12
3811.897	-78.12
3822.463	-80.12
3832.998	-79.12
3843.501	-78.12
3853.973	-80.12
3864.414	-75.12
3874.823	-34.12
3885.202	87.88
3895.55	-62.12
3905.868	-74.12
3916.155	-73.12
3926.411	-80.12
3936.638	-81.12
3946.834	-77.12
3957	-78.12
3967.137	-80.12
3977.244	-78.12
3987.321	-79.12
3997.369	-80.12
4007.388	-73.12
4017.377	-78.12
4027.338	-74.12
4037.269	-76.12
4047.172	-77.12
4057.046	-72.12
4066.891	-81.12
4076.708	-80.12
4086.497	-78.12
4096.257	-82.12
4105.989	44.88
4115.694	28.88
4125.37	-81.12
4135.019	-80.12
4142.237	-87.12

File: water 2_RamanShift_3.txt
Data from water 2_RamanShift_3.txt Node

Date: Tue Aug 29 12:05:37 IDT 2017
User: aro
Spectrometer: QEPB0276
Trigger mode: 0
Integration Time (sec): 3.000000E1
Scans to average: 1
Electric dark correction enabled: true
Nonlinearity correction enabled: false
Boxcar width: 0
XAxis mode: Raman Shifts
Number of Pixels in Spectrum: 1044
>>>>>Begin Spectral Data<<<<<
160.701	35.25
184.826	420.25
208.845	1823.25
232.758	1948.25
256.565	2085.25
280.267	2258.25
303.865	2432.25
327.359	2543.25
350.751	2670.25
374.04	2950.25
397.228	2983.25
420.315	4690.25
443.302	3080.25
466.189	2779.25
488.978	2653.25
511.668	2006.25
534.261	1413.25
556.756	1227.25
579.155	1204.25
601.459	1166.25
623.667	1110.25
645.781	1561.25
667.8	1046.25
689.726	934.25
711.56	900.25
733.301	916.25
754.951	1090.25
776.509	1024.25
797.977	1118.25
819.355	1060.25
840.644	987.25
861.844	886.25
882.955	800.25
903.979	770.25
924.916	769.25
945.766	760.25
966.529	746.25
987.208	719.25
1007.801	729.25
1028.309	771.25
1048.734	793.25
1069.075	792.25
1089.333	773.25
1109.509	743.25
1129.602	675.25
1149.614	693.25
1169.545	720.25
1189.395	706.25
1209.165	715.25
1228.856	728.25
1248.467	702.25
1268	635.25
1287.455	611.25
1306.832	640.25
1326.132	644.25
1345.354	592.25
1364.501	602.25
1383.572	605.25
1402.567	558.25
1421.487	542.25
1440.333	554.25
1459.104	568.25
1477.802	548.25
1496.426	571.25
1514.978	597.25
1533.457	583.25
1551.864	555.25
1570.199	538.25
1588.464	524.25
1606.657	503.25
1624.78	490.25
1642.834	492.25
1660.817	488.25
1678.732	509.25
1696.577	504.25
1714.355	507.25
1732.064	470.25
1749.705	437.25
1767.28	409.25
1784.787	412.25
1802.228	431.25
1819.603	412.25
1836.913	387.25
1854.156	366.25
1871.335	381.25
1888.449	378.25
1905.499	376.25
1922.485	390.25
1939.408	399.25
1956.267	389.25
1973.063	342.25
1989.797	324.25
2006.469	322.25
2023.078	298.25
2039.627	289.25
2056.114	289.25
2072.54	302.25
2088.906	313.25
2105.211	296.25
2121.457	283.25
2137.643	263.25
2153.77	250.25
2169.838	237.25
2185.848	224.25
2201.799	221.25
2217.693	224.25
2233.529	222.25
2249.307	211.25
2265.029	206.25
2280.694	188.25
2296.302	173.25
2311.854	168.25
2327.351	180.25
2342.792	158.25
2358.178	145.25
2373.508	156.25
2388.785	144.25
2404.007	146.25
2419.174	131.25
2434.289	126.25
2449.349	124.25
2464.356	103.25
2479.311	113.25
2494.213	119.25
2509.062	113.25
2523.859	110.25
2538.605	110.25
2553.299	114.25
2567.941	104.25
2582.533	97.25
2597.073	99.25
2611.564	94.25
2626.004	85.25
2640.394	78.25
2654.734	72.25
2669.025	60.25
2683.266	68.25
2697.458	51.25
2711.602	40.25
2725.697	42.25
2739.744	45.25
2753.743	44.25
2767.695	55.25
2781.598	43.25
2795.455	39.25
2809.264	32.25
2823.026	36.25
2836.742	35.25
2850.412	29.25
2864.035	28.25
2877.613	24.25
2891.145	18.25
2904.631	6.25
2918.073	1.25
2931.469	-1.75
2944.821	-7.75
2958.128	-7.75
2971.39	-13.75
2984.609	-12.75
2997.784	-3.75
3010.915	-8.75
3024.002	-15.75
3037.046	-22.75
3050.048	-25.75
3063.006	-31.75
3075.922	-28.75
3088.795	-28.75
3101.627	-26.75
3114.416	-28.75
3127.163	-30.75
3139.869	-30.75
3152.533	-36.75
3165.157	-43.75
3177.739	-41.75
3190.28	-49.75
3202.781	-49.75
3215.241	-49.75
3227.661	-55.75
3240.041	-46.75
3252.382	-49.75
3264.682	-55.75
3276.943	-52.75
3289.165	-53.75
3301.348	-57.75
3313.492	-59.75
3325.597	-60.75
3337.663	-68.75
3349.691	-63.75
3361.681	-67.75
3373.633	-68.75
3385.547	-64.75
3397.424	-56.75
3409.263	-66.75
3421.065	-63.75
3432.829	-64.75
3444.557	-62.75
3456.247	-65.75
3467.902	-74.75
3479.519	-67.75
3491.101	-71.75
3502.646	-66.75
3514.155	-69.75
3525.629	-72.75
3537.067	-72.75
3548.469	-71.75
3559.837	-62.75
3571.169	-76.75
3582.466	-68.75
3593.728	-69.75
3604.956	-71.75
3616.149	-83.75
3627.307	-78.75
3638.432	-74.75
3649.523	-78.75
3660.579	-75.75
3671.602	-81.75
3682.591	-78.75
3693.547	-76.75
3704.47	-80.75
3715.359	-75.75
3726.216	-83.75
3737.039	-77.75
3747.83	-81.75
3758.589	-81.75
3769.315	-82.75
3780.008	-92.75
3790.67	-79.75
3801.299	-83.75
3811.897	-78.75
3822.463	-76.75
3832.998	-79.75
3843.501	-75.75
3853.973	-73.75
3864.414	-79.75
3874.823	-36.75
3885.202	81.25
3895.55	-58.75
3905.868	-78.75
3916.155	-83.75
3926.411	-79.75
3936.638	-85.75
3946.834	-81.75
3957	-73.75
3967.137	-79.75
3977.244	-79.75
3987.321	-76.75
3997.369	-78.75
4007.388	-70.75
4017.377	-72.75
4027.338	-75.75
4037.269	-76.75
4047.172	-77.75
4057.046	-79.75
4066.891	-84.75
4076.708	-85.75
4086.497	-82.75
4096.257	-82.75
4105.989	49.25
4115.694	36.25
4125.37	-81.75
4135.019	-82.75
4142.237	-87.75

File: water 3_RamanShift_1.txt
Data from water 3_RamanShift_1.txt Node

Date: Tue Aug 29 12:28:07 IDT 2017
User: aro
Spectrometer: QEPB0276
Trigger mode: 0
Integration Time (sec): 3.000000E1
Scans to average: 1
Electric dark correction enabled: true
Nonlinearity correction enabled: false
Boxcar width: 0
XAxis mode: Raman Shifts
Number of Pixels in Spectrum: 1044
>>>>>Begin Spectral Data<<<<<
160.701	34.25
184.826	400.25
208.845	1721.25
232.758	1766.25
256.565	1825.25
280.267	1934.25
303.865	2056.25
327.359	2124.25
350.751	2232.25
374.04	2480.25
397.228	2510.25
420.315	3968.25
443.302	2562.25
466.189	2297.25
488.978	2208.25
511.668	1657.25
534.261	1156.25
556.756	991.25
579.155	972.25
601.459	942.25
623.667	884.25
645.781	1291.25
667.8	837.25
689.726	737.25
711.56	721.25
733.301	732.25
754.951	890.25
776.509	819.25
797.977	895.25
819.355	862.25
840.644	790.25
861.844	699.25
882.955	626.25
903.979	604.25
924.916	591.25
945.766	591.25
966.529	575.25
987.208	551.25
1007.801	585.25
1028.309	598.25
1048.734	625.25
1069.075	617.25
1089.333	620.25
1109.509	580.25
1129.602	538.25
1149.614	538.25
1169.545	562.25
1189.395	555.25
1209.165	559.25
1228.856	582.25
1248.467	550.25
1268	500.25
1287.455	483.25
1306.832	512.25
1326.132	501.25
1345.354	487.25
1364.501	483.25
1383.572	488.25
1402.567	447.25
1421.487	437.25
1440.333	453.25
1459.104	465.25
1477.802	447.25
1496.426	465.25
1514.978	506.25
1533.457	482.25
1551.864	445.25
1570.199	435.25
1588.464	417.25
1606.657	393.25
1624.78	404.25
1642.834	402.25
1660.817	414.25
1678.732	409.25
1696.577	429.25
1714.355	406.25
1732.064	385.25
1749.705	352.25
1767.28	330.25
1784.787	325.25
1802.228	344.25
1819.603	324.25
1836.913	307.25
1854.156	293.25
1871.335	299.25
1888.449	311.25
1905.499	307.25
1922.485	319.25
1939.408	328.25
1956.267	309.25
1973.063	269.25
1989.797	254.25
2006.469	239.25
2023.078	240.25
2039.627	232.25
2056.114	237.25
2072.54	237.25
2088.906	249.25
2105.211	240.25
2121.457	218.25
2137.643	202.25
2153.77	195.25
2169.838	180.25
2185.848	179.25
2201.799	173.25
2217.693	167.25
2233.529	168.25
2249.307	175.25
2265.029	155.25
2280.694	139.25
2296.302	134.25
2311.854	127.25
2327.351	145.25
2342.792	115.25
2358.178	114.25
2373.508	116.25
2388.785	99.25
2404.007	101.25
2419.174	101.25
2434.289	99.25
2449.349	88.25
2464.356	82.25
2479.311	81.25
2494.213	85.25
2509.062	88.25
2523.859	77.25
2538.605	82.25
2553.299	79.25
2567.941	80.25
2582.533	82.25
2597.073	73.25
2611.564	72.25
2626.004	59.25
2640.394	55.25
2654.734	47.25
2669.025	38.25
2683.266	47.25
2697.458	33.25
2711.602	24.25
2725.697	22.25
2739.744	19.25
2753.743	36.25
2767.695	34.25
2781.598	27.25
2795.455	23.25
2809.264	18.25
2823.026	18.25
2836.742	24.25
2850.412	14.25
2864.035	10.25
2877.613	7.25
2891.145	4.25
2904.631	-6.75
2918.073	-10.75
2931.469	-6.75
2944.821	-10.75
2958.128	-14.75
2971.39	-18.75
2984.609	-17.75
2997.784	-14.75
3010.915	-18.75
3024.002	-23.75
3037.046	-26.75
3050.048	-30.75
3063.006	-35.75
3075.922	-29.75
3088.795	-37.75
3101.627	-32.75
3114.416	-31.75
3127.163	-36.75
3139.869	-32.75
3152.533	-39.75
3165.157	-37.75
3177.739	-40.75
3190.28	-47.75
3202.781	-47.75
3215.241	-54.75
3227.661	-50.75
3240.041	-43.75
3252.382	-53.75
3264.682	-53.75
3276.943	-53.75
3289.165	-51.75
3301.348	-57.75
3313.492	-56.75
3325.597	-59.75
3337.663	-71.75
3349.691	-60.75
3361.681	-59.75
3373.633	-56.75
3385.547	-59.75
3397.424	-58.75
3409.263	-57.75
3421.065	-61.75
3432.829	-60.75
3444.557	-60.75
3456.247	-61.75
3467.902	-66.75
3479.519	-55.75
3491.101	-62.75
3502.646	-62.75
3514.155	-64.75
3525.629	-69.75
3537.067	-64.75
3548.469	-73.75
3559.837	-66.75
3571.169	-75.75
3582.466	-70.75
3593.728	-68.75
3604.956	-72.75
3616.149	-79.75
3627.307	-73.75
3638.432	-71.75
3649.523	-73.75
3660.579	-69.75
3671.602	-72.75
3682.591	-74.75
3693.547	-65.75
3704.47	-75.75
3715.359	-72.75
3726.216	-79.75
3737.039	-76.75
3747.83	-78.75
3758.589	-77.75
3769.315	-77.75
3780.008	-83.75
3790.67	-75.75
3801.299	-77.75
3811.897	-73.75
3822.463	-73.75
3832.998	-65.75
3843.501	-66.75
3853.973	-71.75
3864.414	-71.75
3874.823	-33.75
3885.202	63.25
3895.55	-54.75
3905.868	-74.75
3916.155	-77.75
3926.411	-73.75
3936.638	-79.75
3946.834	-80.75
3957	-73.75
3967.137	-73.75
3977.244	-79.75
3987.321	-73.75
3997.369	-74.75
4007.388	-71.75
4017.377	-71.75
4027.338	-68.75
4037.269	-72.75
4047.172	-70.75
4057.046	-67.75
4066.891	-73.75
4076.708	-74.75
4086.497	-69.75
4096.257	-74.75
4105.989	51.25
4115.694	34.25
4125.37	-74.75
4135.019	-76.75
4142.237	-79.75