Folder: Water/Data/Raman/2017-08-29 - Alluminum 2/Aug 29 2017 - Aluminum 2 (part 7)

File: EC 12 3_RamanShift_2.txt
Data from EC 12 3_RamanShift_2.txt Node

Date: Tue Aug 29 12:37:37 IDT 2017
User: aro
Spectrometer: QEPB0276
Trigger mode: 0
Integration Time (sec): 3.000000E1
Scans to average: 1
Electric dark correction enabled: true
Nonlinearity correction enabled: false
Boxcar width: 0
XAxis mode: Raman Shifts
Number of Pixels in Spectrum: 1044
>>>>>Begin Spectral Data<<<<<
160.701	24.25
184.826	460.25
208.845	2067.25
232.758	2198.25
256.565	2319.25
280.267	2452.25
303.865	2621.25
327.359	2694.25
350.751	2794.25
374.04	3011.25
397.228	3035.25
420.315	4297.25
443.302	3079.25
466.189	2865.25
488.978	2746.25
511.668	2243.25
534.261	1719.25
556.756	1607.25
579.155	1563.25
601.459	1552.25
623.667	1480.25
645.781	1801.25
667.8	1415.25
689.726	1336.25
711.56	1302.25
733.301	1297.25
754.951	1416.25
776.509	1360.25
797.977	1443.25
819.355	1407.25
840.644	1331.25
861.844	1250.25
882.955	1194.25
903.979	1141.25
924.916	1139.25
945.766	1129.25
966.529	1097.25
987.208	1062.25
1007.801	1092.25
1028.309	1130.25
1048.734	1135.25
1069.075	1097.25
1089.333	1109.25
1109.509	1072.25
1129.602	1000.25
1149.614	1003.25
1169.545	1015.25
1189.395	1012.25
1209.165	1005.25
1228.856	1017.25
1248.467	993.25
1268	920.25
1287.455	903.25
1306.832	917.25
1326.132	891.25
1345.354	837.25
1364.501	826.25
1383.572	840.25
1402.567	800.25
1421.487	773.25
1440.333	791.25
1459.104	788.25
1477.802	748.25
1496.426	761.25
1514.978	803.25
1533.457	784.25
1551.864	759.25
1570.199	730.25
1588.464	707.25
1606.657	680.25
1624.78	653.25
1642.834	660.25
1660.817	653.25
1678.732	635.25
1696.577	621.25
1714.355	640.25
1732.064	609.25
1749.705	553.25
1767.28	526.25
1784.787	511.25
1802.228	539.25
1819.603	513.25
1836.913	483.25
1854.156	476.25
1871.335	488.25
1888.449	475.25
1905.499	462.25
1922.485	489.25
1939.408	493.25
1956.267	473.25
1973.063	434.25
1989.797	399.25
2006.469	408.25
2023.078	386.25
2039.627	361.25
2056.114	358.25
2072.54	377.25
2088.906	383.25
2105.211	369.25
2121.457	349.25
2137.643	330.25
2153.77	323.25
2169.838	308.25
2185.848	290.25
2201.799	281.25
2217.693	287.25
2233.529	287.25
2249.307	266.25
2265.029	259.25
2280.694	243.25
2296.302	247.25
2311.854	229.25
2327.351	242.25
2342.792	213.25
2358.178	213.25
2373.508	225.25
2388.785	222.25
2404.007	207.25
2419.174	205.25
2434.289	195.25
2449.349	185.25
2464.356	175.25
2479.311	172.25
2494.213	171.25
2509.062	167.25
2523.859	165.25
2538.605	162.25
2553.299	160.25
2567.941	159.25
2582.533	154.25
2597.073	149.25
2611.564	138.25
2626.004	128.25
2640.394	122.25
2654.734	121.25
2669.025	101.25
2683.266	104.25
2697.458	86.25
2711.602	75.25
2725.697	71.25
2739.744	73.25
2753.743	76.25
2767.695	83.25
2781.598	65.25
2795.455	63.25
2809.264	61.25
2823.026	57.25
2836.742	60.25
2850.412	53.25
2864.035	48.25
2877.613	43.25
2891.145	45.25
2904.631	33.25
2918.073	33.25
2931.469	27.25
2944.821	25.25
2958.128	15.25
2971.39	8.25
2984.609	4.25
2997.784	10.25
3010.915	6.25
3024.002	2.25
3037.046	-0.75
3050.048	-9.75
3063.006	-11.75
3075.922	-19.75
3088.795	-20.75
3101.627	-14.75
3114.416	-17.75
3127.163	-21.75
3139.869	-19.75
3152.533	-21.75
3165.157	-33.75
3177.739	-28.75
3190.28	-38.75
3202.781	-42.75
3215.241	-38.75
3227.661	-48.75
3240.041	-43.75
3252.382	-46.75
3264.682	-41.75
3276.943	-50.75
3289.165	-42.75
3301.348	-50.75
3313.492	-53.75
3325.597	-60.75
3337.663	-57.75
3349.691	-60.75
3361.681	-58.75
3373.633	-50.75
3385.547	-55.75
3397.424	-53.75
3409.263	-57.75
3421.065	-60.75
3432.829	-56.75
3444.557	-64.75
3456.247	-69.75
3467.902	-71.75
3479.519	-62.75
3491.101	-68.75
3502.646	-65.75
3514.155	-70.75
3525.629	-76.75
3537.067	-74.75
3548.469	-68.75
3559.837	-65.75
3571.169	-75.75
3582.466	-71.75
3593.728	-73.75
3604.956	-73.75
3616.149	-79.75
3627.307	-78.75
3638.432	-73.75
3649.523	-74.75
3660.579	-75.75
3671.602	-71.75
3682.591	-76.75
3693.547	-69.75
3704.47	-80.75
3715.359	-74.75
3726.216	-79.75
3737.039	-74.75
3747.83	-74.75
3758.589	-76.75
3769.315	-77.75
3780.008	-81.75
3790.67	-76.75
3801.299	-78.75
3811.897	-82.75
3822.463	-81.75
3832.998	-74.75
3843.501	-80.75
3853.973	-74.75
3864.414	-71.75
3874.823	-51.75
3885.202	53.25
3895.55	-65.75
3905.868	-80.75
3916.155	-79.75
3926.411	-78.75
3936.638	-75.75
3946.834	-77.75
3957	-77.75
3967.137	-79.75
3977.244	-82.75
3987.321	-74.75
3997.369	-81.75
4007.388	-73.75
4017.377	-74.75
4027.338	-72.75
4037.269	-79.75
4047.172	-80.75
4057.046	-80.75
4066.891	-84.75
4076.708	-79.75
4086.497	-82.75
4096.257	-81.75
4105.989	30.25
4115.694	22.25
4125.37	-82.75
4135.019	-78.75
4142.237	-84.75

File: EC 12 3_RamanShift_3.txt
Data from EC 12 3_RamanShift_3.txt Node

Date: Tue Aug 29 12:38:07 IDT 2017
User: aro
Spectrometer: QEPB0276
Trigger mode: 0
Integration Time (sec): 3.000000E1
Scans to average: 1
Electric dark correction enabled: true
Nonlinearity correction enabled: false
Boxcar width: 0
XAxis mode: Raman Shifts
Number of Pixels in Spectrum: 1044
>>>>>Begin Spectral Data<<<<<
160.701	29.88
184.826	458.88
208.845	2002.88
232.758	2121.88
256.565	2236.88
280.267	2381.88
303.865	2513.88
327.359	2613.88
350.751	2687.88
374.04	2911.88
397.228	2948.88
420.315	4201.88
443.302	2991.88
466.189	2742.88
488.978	2666.88
511.668	2152.88
534.261	1661.88
556.756	1526.88
579.155	1489.88
601.459	1450.88
623.667	1399.88
645.781	1726.88
667.8	1341.88
689.726	1263.88
711.56	1219.88
733.301	1235.88
754.951	1367.88
776.509	1301.88
797.977	1376.88
819.355	1321.88
840.644	1262.88
861.844	1174.88
882.955	1112.88
903.979	1080.88
924.916	1074.88
945.766	1061.88
966.529	1051.88
987.208	1006.88
1007.801	1039.88
1028.309	1053.88
1048.734	1075.88
1069.075	1053.88
1089.333	1032.88
1109.509	1010.88
1129.602	945.88
1149.614	951.88
1169.545	992.88
1189.395	964.88
1209.165	957.88
1228.856	968.88
1248.467	955.88
1268	887.88
1287.455	860.88
1306.832	872.88
1326.132	854.88
1345.354	807.88
1364.501	794.88
1383.572	800.88
1402.567	750.88
1421.487	751.88
1440.333	741.88
1459.104	759.88
1477.802	724.88
1496.426	721.88
1514.978	759.88
1533.457	753.88
1551.864	727.88
1570.199	699.88
1588.464	676.88
1606.657	645.88
1624.78	631.88
1642.834	628.88
1660.817	650.88
1678.732	620.88
1696.577	597.88
1714.355	624.88
1732.064	587.88
1749.705	552.88
1767.28	505.88
1784.787	496.88
1802.228	507.88
1819.603	496.88
1836.913	464.88
1854.156	460.88
1871.335	475.88
1888.449	465.88
1905.499	446.88
1922.485	463.88
1939.408	472.88
1956.267	465.88
1973.063	427.88
1989.797	391.88
2006.469	391.88
2023.078	372.88
2039.627	355.88
2056.114	346.88
2072.54	355.88
2088.906	359.88
2105.211	360.88
2121.457	336.88
2137.643	323.88
2153.77	311.88
2169.838	297.88
2185.848	282.88
2201.799	279.88
2217.693	273.88
2233.529	281.88
2249.307	264.88
2265.029	256.88
2280.694	238.88
2296.302	234.88
2311.854	218.88
2327.351	230.88
2342.792	216.88
2358.178	204.88
2373.508	215.88
2388.785	211.88
2404.007	202.88
2419.174	198.88
2434.289	193.88
2449.349	175.88
2464.356	177.88
2479.311	170.88
2494.213	169.88
2509.062	169.88
2523.859	161.88
2538.605	164.88
2553.299	155.88
2567.941	161.88
2582.533	150.88
2597.073	145.88
2611.564	142.88
2626.004	129.88
2640.394	128.88
2654.734	116.88
2669.025	104.88
2683.266	101.88
2697.458	82.88
2711.602	80.88
2725.697	65.88
2739.744	67.88
2753.743	73.88
2767.695	76.88
2781.598	65.88
2795.455	63.88
2809.264	60.88
2823.026	66.88
2836.742	62.88
2850.412	57.88
2864.035	56.88
2877.613	45.88
2891.145	40.88
2904.631	34.88
2918.073	30.88
2931.469	30.88
2944.821	24.88
2958.128	17.88
2971.39	15.88
2984.609	3.88
2997.784	17.88
3010.915	4.88
3024.002	-2.12
3037.046	-3.12
3050.048	-3.12
3063.006	-9.12
3075.922	-16.12
3088.795	-17.12
3101.627	-17.12
3114.416	-14.12
3127.163	-20.12
3139.869	-19.12
3152.533	-26.12
3165.157	-29.12
3177.739	-27.12
3190.28	-33.12
3202.781	-37.12
3215.241	-41.12
3227.661	-45.12
3240.041	-43.12
3252.382	-43.12
3264.682	-43.12
3276.943	-43.12
3289.165	-44.12
3301.348	-48.12
3313.492	-51.12
3325.597	-55.12
3337.663	-54.12
3349.691	-55.12
3361.681	-51.12
3373.633	-51.12
3385.547	-57.12
3397.424	-51.12
3409.263	-56.12
3421.065	-57.12
3432.829	-55.12
3444.557	-58.12
3456.247	-61.12
3467.902	-63.12
3479.519	-62.12
3491.101	-64.12
3502.646	-66.12
3514.155	-60.12
3525.629	-74.12
3537.067	-68.12
3548.469	-69.12
3559.837	-62.12
3571.169	-69.12
3582.466	-68.12
3593.728	-66.12
3604.956	-70.12
3616.149	-77.12
3627.307	-70.12
3638.432	-71.12
3649.523	-73.12
3660.579	-69.12
3671.602	-66.12
3682.591	-64.12
3693.547	-70.12
3704.47	-75.12
3715.359	-78.12
3726.216	-77.12
3737.039	-73.12
3747.83	-77.12
3758.589	-79.12
3769.315	-75.12
3780.008	-81.12
3790.67	-70.12
3801.299	-76.12
3811.897	-75.12
3822.463	-80.12
3832.998	-72.12
3843.501	-75.12
3853.973	-73.12
3864.414	-77.12
3874.823	-41.12
3885.202	49.88
3895.55	-60.12
3905.868	-73.12
3916.155	-76.12
3926.411	-78.12
3936.638	-81.12
3946.834	-73.12
3957	-75.12
3967.137	-73.12
3977.244	-77.12
3987.321	-75.12
3997.369	-77.12
4007.388	-75.12
4017.377	-77.12
4027.338	-70.12
4037.269	-79.12
4047.172	-75.12
4057.046	-77.12
4066.891	-76.12
4076.708	-76.12
4086.497	-79.12
4096.257	-75.12
4105.989	35.88
4115.694	19.88
4125.37	-78.12
4135.019	-77.12
4142.237	-81.12

File: EC 12 4_RamanShift_1.txt
Data from EC 12 4_RamanShift_1.txt Node

Date: Tue Aug 29 12:39:07 IDT 2017
User: aro
Spectrometer: QEPB0276
Trigger mode: 0
Integration Time (sec): 3.000000E1
Scans to average: 1
Electric dark correction enabled: true
Nonlinearity correction enabled: false
Boxcar width: 0
XAxis mode: Raman Shifts
Number of Pixels in Spectrum: 1044
>>>>>Begin Spectral Data<<<<<
160.701	21.62
184.826	701.62
208.845	3203.62
232.758	3477.62
256.565	3734.62
280.267	3956.62
303.865	4119.62
327.359	4194.62
350.751	4282.62
374.04	4469.62
397.228	4512.62
420.315	5640.62
443.302	4545.62
466.189	4308.62
488.978	4209.62
511.668	3702.62
534.261	3220.62
556.756	3097.62
579.155	3050.62
601.459	2995.62
623.667	2903.62
645.781	3151.62
667.8	2776.62
689.726	2709.62
711.56	2642.62
733.301	2602.62
754.951	2723.62
776.509	2678.62
797.977	2699.62
819.355	2629.62
840.644	2578.62
861.844	2480.62
882.955	2417.62
903.979	2329.62
924.916	2303.62
945.766	2295.62
966.529	2220.62
987.208	2139.62
1007.801	2195.62
1028.309	2237.62
1048.734	2207.62
1069.075	2148.62
1089.333	2139.62
1109.509	2119.62
1129.602	1991.62
1149.614	1984.62
1169.545	2002.62
1189.395	1948.62
1209.165	1929.62
1228.856	1966.62
1248.467	1929.62
1268	1787.62
1287.455	1754.62
1306.832	1760.62
1326.132	1737.62
1345.354	1589.62
1364.501	1588.62
1383.572	1622.62
1402.567	1548.62
1421.487	1481.62
1440.333	1501.62
1459.104	1467.62
1477.802	1388.62
1496.426	1376.62
1514.978	1479.62
1533.457	1465.62
1551.864	1408.62
1570.199	1352.62
1588.464	1324.62
1606.657	1238.62
1624.78	1191.62
1642.834	1193.62
1660.817	1213.62
1678.732	1172.62
1696.577	1110.62
1714.355	1164.62
1732.064	1119.62
1749.705	1027.62
1767.28	939.62
1784.787	926.62
1802.228	961.62
1819.603	951.62
1836.913	891.62
1854.156	864.62
1871.335	865.62
1888.449	849.62
1905.499	831.62
1922.485	864.62
1939.408	889.62
1956.267	872.62
1973.063	793.62
1989.797	740.62
2006.469	719.62
2023.078	684.62
2039.627	638.62
2056.114	620.62
2072.54	642.62
2088.906	664.62
2105.211	647.62
2121.457	618.62
2137.643	591.62
2153.77	584.62
2169.838	528.62
2185.848	516.62
2201.799	505.62
2217.693	494.62
2233.529	497.62
2249.307	465.62
2265.029	456.62
2280.694	424.62
2296.302	417.62
2311.854	392.62
2327.351	402.62
2342.792	369.62
2358.178	361.62
2373.508	371.62
2388.785	355.62
2404.007	352.62
2419.174	341.62
2434.289	335.62
2449.349	309.62
2464.356	294.62
2479.311	301.62
2494.213	291.62
2509.062	288.62
2523.859	286.62
2538.605	271.62
2553.299	266.62
2567.941	276.62
2582.533	265.62
2597.073	247.62
2611.564	236.62
2626.004	223.62
2640.394	210.62
2654.734	197.62
2669.025	179.62
2683.266	174.62
2697.458	144.62
2711.602	143.62
2725.697	120.62
2739.744	120.62
2753.743	127.62
2767.695	131.62
2781.598	119.62
2795.455	119.62
2809.264	105.62
2823.026	114.62
2836.742	101.62
2850.412	85.62
2864.035	88.62
2877.613	80.62
2891.145	68.62
2904.631	54.62
2918.073	48.62
2931.469	46.62
2944.821	39.62
2958.128	25.62
2971.39	16.62
2984.609	20.62
2997.784	20.62
3010.915	13.62
3024.002	8.62
3037.046	-1.38
3050.048	-0.38
3063.006	-7.38
3075.922	-12.38
3088.795	-17.38
3101.627	-15.38
3114.416	-14.38
3127.163	-23.38
3139.869	-20.38
3152.533	-23.38
3165.157	-34.38
3177.739	-38.38
3190.28	-38.38
3202.781	-47.38
3215.241	-52.38
3227.661	-55.38
3240.041	-57.38
3252.382	-53.38
3264.682	-64.38
3276.943	-62.38
3289.165	-65.38
3301.348	-67.38
3313.492	-72.38
3325.597	-77.38
3337.663	-79.38
3349.691	-81.38
3361.681	-78.38
3373.633	-77.38
3385.547	-78.38
3397.424	-73.38
3409.263	-73.38
3421.065	-81.38
3432.829	-82.38
3444.557	-80.38
3456.247	-87.38
3467.902	-91.38
3479.519	-83.38
3491.101	-92.38
3502.646	-87.38
3514.155	-88.38
3525.629	-95.38
3537.067	-97.38
3548.469	-98.38
3559.837	-88.38
3571.169	-98.38
3582.466	-92.38
3593.728	-98.38
3604.956	-97.38
3616.149	-103.38
3627.307	-95.38
3638.432	-98.38
3649.523	-99.38
3660.579	-98.38
3671.602	-99.38
3682.591	-94.38
3693.547	-94.38
3704.47	-103.38
3715.359	-98.38
3726.216	-107.38
3737.039	-106.38
3747.83	-99.38
3758.589	-107.38
3769.315	-103.38
3780.008	-111.38
3790.67	-102.38
3801.299	-104.38
3811.897	-103.38
3822.463	-105.38
3832.998	-98.38
3843.501	-100.38
3853.973	-102.38
3864.414	-99.38
3874.823	-70.38
3885.202	14.62
3895.55	-88.38
3905.868	-103.38
3916.155	-107.38
3926.411	-103.38
3936.638	-106.38
3946.834	-103.38
3957	-101.38
3967.137	-104.38
3977.244	-98.38
3987.321	-97.38
3997.369	-103.38
4007.388	-97.38
4017.377	-101.38
4027.338	-96.38
4037.269	-103.38
4047.172	-98.38
4057.046	-102.38
4066.891	-106.38
4076.708	-102.38
4086.497	-104.38
4096.257	-104.38
4105.989	12.62
4115.694	10.62
4125.37	-104.38
4135.019	-106.38
4142.237	-113.38

File: EC 12 4_RamanShift_2.txt
Data from EC 12 4_RamanShift_2.txt Node

Date: Tue Aug 29 12:39:37 IDT 2017
User: aro
Spectrometer: QEPB0276
Trigger mode: 0
Integration Time (sec): 3.000000E1
Scans to average: 1
Electric dark correction enabled: true
Nonlinearity correction enabled: false
Boxcar width: 0
XAxis mode: Raman Shifts
Number of Pixels in Spectrum: 1044
>>>>>Begin Spectral Data<<<<<
160.701	23.38
184.826	598.38
208.845	2741.38
232.758	2967.38
256.565	3167.38
280.267	3325.38
303.865	3512.38
327.359	3608.38
350.751	3709.38
374.04	3863.38
397.228	3874.38
420.315	5035.38
443.302	3932.38
466.189	3722.38
488.978	3595.38
511.668	3124.38
534.261	2656.38
556.756	2542.38
579.155	2482.38
601.459	2443.38
623.667	2358.38
645.781	2648.38
667.8	2284.38
689.726	2206.38
711.56	2139.38
733.301	2152.38
754.951	2239.38
776.509	2194.38
797.977	2265.38
819.355	2181.38
840.644	2126.38
861.844	2042.38
882.955	1972.38
903.979	1897.38
924.916	1895.38
945.766	1890.38
966.529	1835.38
987.208	1759.38
1007.801	1805.38
1028.309	1855.38
1048.734	1823.38
1069.075	1782.38
1089.333	1795.38
1109.509	1761.38
1129.602	1674.38
1149.614	1648.38
1169.545	1666.38
1189.395	1630.38
1209.165	1643.38
1228.856	1655.38
1248.467	1608.38
1268	1509.38
1287.455	1484.38
1306.832	1501.38
1326.132	1460.38
1345.354	1363.38
1364.501	1323.38
1383.572	1355.38
1402.567	1312.38
1421.487	1256.38
1440.333	1266.38
1459.104	1265.38
1477.802	1191.38
1496.426	1204.38
1514.978	1280.38
1533.457	1256.38
1551.864	1195.38
1570.199	1142.38
1588.464	1124.38
1606.657	1067.38
1624.78	1031.38
1642.834	1019.38
1660.817	1034.38
1678.732	985.38
1696.577	979.38
1714.355	1006.38
1732.064	974.38
1749.705	885.38
1767.28	818.38
1784.787	793.38
1802.228	834.38
1819.603	825.38
1836.913	782.38
1854.156	750.38
1871.335	761.38
1888.449	737.38
1905.499	723.38
1922.485	744.38
1939.408	768.38
1956.267	757.38
1973.063	683.38
1989.797	638.38
2006.469	623.38
2023.078	604.38
2039.627	563.38
2056.114	552.38
2072.54	575.38
2088.906	585.38
2105.211	578.38
2121.457	543.38
2137.643	524.38
2153.77	501.38
2169.838	484.38
2185.848	457.38
2201.799	443.38
2217.693	435.38
2233.529	432.38
2249.307	416.38
2265.029	403.38
2280.694	376.38
2296.302	362.38
2311.854	360.38
2327.351	359.38
2342.792	324.38
2358.178	323.38
2373.508	330.38
2388.785	324.38
2404.007	321.38
2419.174	306.38
2434.289	308.38
2449.349	284.38
2464.356	272.38
2479.311	257.38
2494.213	263.38
2509.062	265.38
2523.859	247.38
2538.605	253.38
2553.299	249.38
2567.941	247.38
2582.533	246.38
2597.073	225.38
2611.564	225.38
2626.004	202.38
2640.394	192.38
2654.734	176.38
2669.025	162.38
2683.266	151.38
2697.458	137.38
2711.602	120.38
2725.697	111.38
2739.744	113.38
2753.743	118.38
2767.695	122.38
2781.598	114.38
2795.455	109.38
2809.264	93.38
2823.026	103.38
2836.742	99.38
2850.412	91.38
2864.035	89.38
2877.613	82.38
2891.145	74.38
2904.631	57.38
2918.073	39.38
2931.469	47.38
2944.821	40.38
2958.128	28.38
2971.39	18.38
2984.609	22.38
2997.784	22.38
3010.915	16.38
3024.002	7.38
3037.046	4.38
3050.048	-5.62
3063.006	-9.62
3075.922	-12.62
3088.795	-8.62
3101.627	-15.62
3114.416	-5.62
3127.163	-19.62
3139.869	-17.62
3152.533	-25.62
3165.157	-25.62
3177.739	-30.62
3190.28	-39.62
3202.781	-46.62
3215.241	-47.62
3227.661	-50.62
3240.041	-52.62
3252.382	-52.62
3264.682	-54.62
3276.943	-52.62
3289.165	-59.62
3301.348	-60.62
3313.492	-64.62
3325.597	-73.62
3337.663	-73.62
3349.691	-66.62
3361.681	-74.62
3373.633	-68.62
3385.547	-70.62
3397.424	-70.62
3409.263	-76.62
3421.065	-71.62
3432.829	-71.62
3444.557	-77.62
3456.247	-80.62
3467.902	-82.62
3479.519	-77.62
3491.101	-75.62
3502.646	-78.62
3514.155	-80.62
3525.629	-84.62
3537.067	-85.62
3548.469	-86.62
3559.837	-79.62
3571.169	-86.62
3582.466	-79.62
3593.728	-78.62
3604.956	-88.62
3616.149	-91.62
3627.307	-91.62
3638.432	-90.62
3649.523	-94.62
3660.579	-88.62
3671.602	-90.62
3682.591	-88.62
3693.547	-91.62
3704.47	-96.62
3715.359	-98.62
3726.216	-99.62
3737.039	-98.62
3747.83	-98.62
3758.589	-95.62
3769.315	-98.62
3780.008	-103.62
3790.67	-89.62
3801.299	-99.62
3811.897	-95.62
3822.463	-93.62
3832.998	-89.62
3843.501	-93.62
3853.973	-89.62
3864.414	-91.62
3874.823	-61.62
3885.202	27.38
3895.55	-80.62
3905.868	-93.62
3916.155	-92.62
3926.411	-97.62
3936.638	-98.62
3946.834	-98.62
3957	-97.62
3967.137	-90.62
3977.244	-97.62
3987.321	-91.62
3997.369	-97.62
4007.388	-92.62
4017.377	-93.62
4027.338	-87.62
4037.269	-97.62
4047.172	-92.62
4057.046	-90.62
4066.891	-97.62
4076.708	-94.62
4086.497	-91.62
4096.257	-94.62
4105.989	26.38
4115.694	10.38
4125.37	-93.62
4135.019	-95.62
4142.237	-98.62

File: EC 12 4_RamanShift_3.txt
Data from EC 12 4_RamanShift_3.txt Node

Date: Tue Aug 29 12:40:07 IDT 2017
User: aro
Spectrometer: QEPB0276
Trigger mode: 0
Integration Time (sec): 3.000000E1
Scans to average: 1
Electric dark correction enabled: true
Nonlinearity correction enabled: false
Boxcar width: 0
XAxis mode: Raman Shifts
Number of Pixels in Spectrum: 1044
>>>>>Begin Spectral Data<<<<<
160.701	25.12
184.826	568.12
208.845	2575.12
232.758	2768.12
256.565	2952.12
280.267	3124.12
303.865	3271.12
327.359	3367.12
350.751	3457.12
374.04	3670.12
397.228	3671.12
420.315	4836.12
443.302	3716.12
466.189	3521.12
488.978	3436.12
511.668	2933.12
534.261	2465.12
556.756	2336.12
579.155	2301.12
601.459	2266.12
623.667	2176.12
645.781	2459.12
667.8	2112.12
689.726	2037.12
711.56	1977.12
733.301	1977.12
754.951	2072.12
776.509	2025.12
797.977	2095.12
819.355	2015.12
840.644	1967.12
861.844	1884.12
882.955	1809.12
903.979	1760.12
924.916	1756.12
945.766	1754.12
966.529	1703.12
987.208	1645.12
1007.801	1668.12
1028.309	1720.12
1048.734	1707.12
1069.075	1651.12
1089.333	1658.12
1109.509	1634.12
1129.602	1528.12
1149.614	1512.12
1169.545	1537.12
1189.395	1520.12
1209.165	1502.12
1228.856	1565.12
1248.467	1503.12
1268	1420.12
1287.455	1353.12
1306.832	1401.12
1326.132	1350.12
1345.354	1267.12
1364.501	1242.12
1383.572	1266.12
1402.567	1240.12
1421.487	1168.12
1440.333	1182.12
1459.104	1176.12
1477.802	1111.12
1496.426	1119.12
1514.978	1183.12
1533.457	1179.12
1551.864	1134.12
1570.199	1085.12
1588.464	1065.12
1606.657	1016.12
1624.78	967.12
1642.834	968.12
1660.817	984.12
1678.732	955.12
1696.577	925.12
1714.355	969.12
1732.064	917.12
1749.705	854.12
1767.28	778.12
1784.787	752.12
1802.228	793.12
1819.603	770.12
1836.913	728.12
1854.156	711.12
1871.335	719.12
1888.449	700.12
1905.499	694.12
1922.485	701.12
1939.408	742.12
1956.267	711.12
1973.063	655.12
1989.797	614.12
2006.469	602.12
2023.078	571.12
2039.627	556.12
2056.114	528.12
2072.54	543.12
2088.906	566.12
2105.211	551.12
2121.457	516.12
2137.643	499.12
2153.77	495.12
2169.838	464.12
2185.848	435.12
2201.799	420.12
2217.693	419.12
2233.529	420.12
2249.307	400.12
2265.029	384.12
2280.694	370.12
2296.302	358.12
2311.854	340.12
2327.351	341.12
2342.792	320.12
2358.178	309.12
2373.508	318.12
2388.785	315.12
2404.007	304.12
2419.174	306.12
2434.289	290.12
2449.349	272.12
2464.356	261.12
2479.311	258.12
2494.213	247.12
2509.062	251.12
2523.859	245.12
2538.605	235.12
2553.299	246.12
2567.941	246.12
2582.533	235.12
2597.073	226.12
2611.564	211.12
2626.004	197.12
2640.394	187.12
2654.734	178.12
2669.025	164.12
2683.266	157.12
2697.458	138.12
2711.602	121.12
2725.697	109.12
2739.744	111.12
2753.743	119.12
2767.695	121.12
2781.598	108.12
2795.455	98.12
2809.264	103.12
2823.026	95.12
2836.742	102.12
2850.412	85.12
2864.035	87.12
2877.613	80.12
2891.145	73.12
2904.631	55.12
2918.073	56.12
2931.469	53.12
2944.821	45.12
2958.128	37.12
2971.39	30.12
2984.609	18.12
2997.784	26.12
3010.915	23.12
3024.002	8.12
3037.046	3.12
3050.048	-2.88
3063.006	-6.88
3075.922	-12.88
3088.795	-2.88
3101.627	-8.88
3114.416	-7.88
3127.163	-12.88
3139.869	-17.88
3152.533	-24.88
3165.157	-28.88
3177.739	-28.88
3190.28	-34.88
3202.781	-36.88
3215.241	-36.88
3227.661	-43.88
3240.041	-51.88
3252.382	-47.88
3264.682	-47.88
3276.943	-48.88
3289.165	-51.88
3301.348	-54.88
3313.492	-59.88
3325.597	-64.88
3337.663	-66.88
3349.691	-67.88
3361.681	-63.88
3373.633	-64.88
3385.547	-65.88
3397.424	-67.88
3409.263	-70.88
3421.065	-65.88
3432.829	-68.88
3444.557	-69.88
3456.247	-70.88
3467.902	-77.88
3479.519	-73.88
3491.101	-76.88
3502.646	-73.88
3514.155	-73.88
3525.629	-76.88
3537.067	-79.88
3548.469	-84.88
3559.837	-80.88
3571.169	-78.88
3582.466	-84.88
3593.728	-78.88
3604.956	-82.88
3616.149	-88.88
3627.307	-82.88
3638.432	-85.88
3649.523	-87.88
3660.579	-80.88
3671.602	-82.88
3682.591	-82.88
3693.547	-85.88
3704.47	-86.88
3715.359	-88.88
3726.216	-91.88
3737.039	-91.88
3747.83	-90.88
3758.589	-90.88
3769.315	-88.88
3780.008	-95.88
3790.67	-94.88
3801.299	-92.88
3811.897	-87.88
3822.463	-87.88
3832.998	-88.88
3843.501	-85.88
3853.973	-87.88
3864.414	-87.88
3874.823	-54.88
3885.202	33.12
3895.55	-77.88
3905.868	-89.88
3916.155	-89.88
3926.411	-87.88
3936.638	-95.88
3946.834	-93.88
3957	-89.88
3967.137	-85.88
3977.244	-92.88
3987.321	-89.88
3997.369	-87.88
4007.388	-79.88
4017.377	-85.88
4027.338	-85.88
4037.269	-86.88
4047.172	-86.88
4057.046	-87.88
4066.891	-91.88
4076.708	-91.88
4086.497	-94.88
4096.257	-92.88
4105.989	23.12
4115.694	23.12
4125.37	-89.88
4135.019	-93.88
4142.237	-95.88