Folder: Water/Data/Raman/2017-08-29 - Alluminum 2/Aug 29 2017 - Aluminum 2 (part 13)

File: water 3_RamanShift_3.txt
Data from water 3_RamanShift_3.txt Node

Date: Tue Aug 29 12:28:37 IDT 2017
User: aro
Spectrometer: QEPB0276
Trigger mode: 0
Integration Time (sec): 3.000000E1
Scans to average: 1
Electric dark correction enabled: true
Nonlinearity correction enabled: false
Boxcar width: 0
XAxis mode: Raman Shifts
Number of Pixels in Spectrum: 1044
>>>>>Begin Spectral Data<<<<<
160.701	32.62
184.826	398.62
208.845	1723.62
232.758	1735.62
256.565	1804.62
280.267	1914.62
303.865	2042.62
327.359	2123.62
350.751	2198.62
374.04	2463.62
397.228	2501.62
420.315	3922.62
443.302	2555.62
466.189	2297.62
488.978	2210.62
511.668	1651.62
534.261	1143.62
556.756	988.62
579.155	957.62
601.459	925.62
623.667	873.62
645.781	1267.62
667.8	832.62
689.726	728.62
711.56	703.62
733.301	706.62
754.951	873.62
776.509	806.62
797.977	894.62
819.355	845.62
840.644	790.62
861.844	690.62
882.955	625.62
903.979	590.62
924.916	598.62
945.766	591.62
966.529	579.62
987.208	554.62
1007.801	565.62
1028.309	589.62
1048.734	623.62
1069.075	612.62
1089.333	599.62
1109.509	574.62
1129.602	532.62
1149.614	537.62
1169.545	568.62
1189.395	550.62
1209.165	553.62
1228.856	580.62
1248.467	555.62
1268	501.62
1287.455	484.62
1306.832	497.62
1326.132	496.62
1345.354	486.62
1364.501	483.62
1383.572	475.62
1402.567	442.62
1421.487	428.62
1440.333	443.62
1459.104	444.62
1477.802	451.62
1496.426	472.62
1514.978	490.62
1533.457	473.62
1551.864	454.62
1570.199	429.62
1588.464	416.62
1606.657	407.62
1624.78	384.62
1642.834	398.62
1660.817	404.62
1678.732	400.62
1696.577	416.62
1714.355	409.62
1732.064	382.62
1749.705	342.62
1767.28	322.62
1784.787	318.62
1802.228	338.62
1819.603	317.62
1836.913	296.62
1854.156	296.62
1871.335	300.62
1888.449	309.62
1905.499	297.62
1922.485	310.62
1939.408	313.62
1956.267	307.62
1973.063	270.62
1989.797	250.62
2006.469	244.62
2023.078	235.62
2039.627	228.62
2056.114	229.62
2072.54	223.62
2088.906	249.62
2105.211	239.62
2121.457	221.62
2137.643	202.62
2153.77	200.62
2169.838	175.62
2185.848	181.62
2201.799	170.62
2217.693	166.62
2233.529	164.62
2249.307	158.62
2265.029	154.62
2280.694	135.62
2296.302	136.62
2311.854	125.62
2327.351	143.62
2342.792	120.62
2358.178	114.62
2373.508	112.62
2388.785	109.62
2404.007	103.62
2419.174	105.62
2434.289	100.62
2449.349	91.62
2464.356	88.62
2479.311	88.62
2494.213	82.62
2509.062	80.62
2523.859	75.62
2538.605	78.62
2553.299	74.62
2567.941	77.62
2582.533	70.62
2597.073	64.62
2611.564	74.62
2626.004	55.62
2640.394	55.62
2654.734	49.62
2669.025	44.62
2683.266	42.62
2697.458	28.62
2711.602	29.62
2725.697	23.62
2739.744	28.62
2753.743	28.62
2767.695	30.62
2781.598	21.62
2795.455	22.62
2809.264	9.62
2823.026	17.62
2836.742	24.62
2850.412	15.62
2864.035	14.62
2877.613	6.62
2891.145	0.62
2904.631	-1.38
2918.073	-1.38
2931.469	-5.38
2944.821	-9.38
2958.128	-11.38
2971.39	-9.38
2984.609	-18.38
2997.784	-13.38
3010.915	-17.38
3024.002	-27.38
3037.046	-23.38
3050.048	-31.38
3063.006	-39.38
3075.922	-34.38
3088.795	-32.38
3101.627	-29.38
3114.416	-29.38
3127.163	-27.38
3139.869	-35.38
3152.533	-31.38
3165.157	-46.38
3177.739	-36.38
3190.28	-41.38
3202.781	-46.38
3215.241	-41.38
3227.661	-46.38
3240.041	-48.38
3252.382	-47.38
3264.682	-51.38
3276.943	-52.38
3289.165	-48.38
3301.348	-59.38
3313.492	-56.38
3325.597	-63.38
3337.663	-62.38
3349.691	-59.38
3361.681	-60.38
3373.633	-62.38
3385.547	-60.38
3397.424	-58.38
3409.263	-56.38
3421.065	-59.38
3432.829	-61.38
3444.557	-53.38
3456.247	-65.38
3467.902	-64.38
3479.519	-60.38
3491.101	-62.38
3502.646	-61.38
3514.155	-62.38
3525.629	-69.38
3537.067	-61.38
3548.469	-69.38
3559.837	-63.38
3571.169	-71.38
3582.466	-66.38
3593.728	-67.38
3604.956	-71.38
3616.149	-77.38
3627.307	-76.38
3638.432	-70.38
3649.523	-75.38
3660.579	-74.38
3671.602	-70.38
3682.591	-73.38
3693.547	-74.38
3704.47	-73.38
3715.359	-77.38
3726.216	-76.38
3737.039	-76.38
3747.83	-74.38
3758.589	-70.38
3769.315	-77.38
3780.008	-74.38
3790.67	-70.38
3801.299	-72.38
3811.897	-73.38
3822.463	-73.38
3832.998	-74.38
3843.501	-71.38
3853.973	-70.38
3864.414	-73.38
3874.823	-37.38
3885.202	55.62
3895.55	-63.38
3905.868	-76.38
3916.155	-70.38
3926.411	-78.38
3936.638	-75.38
3946.834	-74.38
3957	-72.38
3967.137	-72.38
3977.244	-74.38
3987.321	-74.38
3997.369	-76.38
4007.388	-73.38
4017.377	-69.38
4027.338	-71.38
4037.269	-74.38
4047.172	-74.38
4057.046	-73.38
4066.891	-83.38
4076.708	-77.38
4086.497	-81.38
4096.257	-75.38
4105.989	47.62
4115.694	34.62
4125.37	-77.38
4135.019	-76.38
4142.237	-77.38

File: water 3_RamanShift_4.txt
Data from water 3_RamanShift_4.txt Node

Date: Tue Aug 29 12:29:07 IDT 2017
User: aro
Spectrometer: QEPB0276
Trigger mode: 0
Integration Time (sec): 3.000000E1
Scans to average: 1
Electric dark correction enabled: true
Nonlinearity correction enabled: false
Boxcar width: 0
XAxis mode: Raman Shifts
Number of Pixels in Spectrum: 1044
>>>>>Begin Spectral Data<<<<<
160.701	34.12
184.826	395.12
208.845	1693.12
232.758	1737.12
256.565	1810.12
280.267	1894.12
303.865	2035.12
327.359	2131.12
350.751	2205.12
374.04	2442.12
397.228	2472.12
420.315	3931.12
443.302	2539.12
466.189	2317.12
488.978	2200.12
511.668	1637.12
534.261	1121.12
556.756	972.12
579.155	933.12
601.459	918.12
623.667	882.12
645.781	1269.12
667.8	823.12
689.726	729.12
711.56	713.12
733.301	708.12
754.951	868.12
776.509	805.12
797.977	879.12
819.355	836.12
840.644	766.12
861.844	678.12
882.955	618.12
903.979	594.12
924.916	589.12
945.766	572.12
966.529	564.12
987.208	553.12
1007.801	566.12
1028.309	592.12
1048.734	621.12
1069.075	613.12
1089.333	604.12
1109.509	565.12
1129.602	530.12
1149.614	545.12
1169.545	556.12
1189.395	553.12
1209.165	560.12
1228.856	571.12
1248.467	531.12
1268	491.12
1287.455	480.12
1306.832	500.12
1326.132	486.12
1345.354	482.12
1364.501	472.12
1383.572	469.12
1402.567	434.12
1421.487	430.12
1440.333	438.12
1459.104	450.12
1477.802	444.12
1496.426	462.12
1514.978	486.12
1533.457	467.12
1551.864	440.12
1570.199	418.12
1588.464	404.12
1606.657	398.12
1624.78	384.12
1642.834	388.12
1660.817	403.12
1678.732	400.12
1696.577	404.12
1714.355	399.12
1732.064	376.12
1749.705	343.12
1767.28	315.12
1784.787	317.12
1802.228	335.12
1819.603	321.12
1836.913	300.12
1854.156	284.12
1871.335	288.12
1888.449	297.12
1905.499	284.12
1922.485	301.12
1939.408	318.12
1956.267	302.12
1973.063	277.12
1989.797	238.12
2006.469	248.12
2023.078	241.12
2039.627	227.12
2056.114	225.12
2072.54	231.12
2088.906	243.12
2105.211	231.12
2121.457	215.12
2137.643	205.12
2153.77	192.12
2169.838	176.12
2185.848	170.12
2201.799	166.12
2217.693	165.12
2233.529	169.12
2249.307	164.12
2265.029	150.12
2280.694	144.12
2296.302	135.12
2311.854	127.12
2327.351	149.12
2342.792	123.12
2358.178	110.12
2373.508	114.12
2388.785	109.12
2404.007	101.12
2419.174	98.12
2434.289	97.12
2449.349	90.12
2464.356	73.12
2479.311	90.12
2494.213	81.12
2509.062	84.12
2523.859	79.12
2538.605	80.12
2553.299	76.12
2567.941	79.12
2582.533	77.12
2597.073	70.12
2611.564	57.12
2626.004	55.12
2640.394	57.12
2654.734	51.12
2669.025	38.12
2683.266	35.12
2697.458	28.12
2711.602	24.12
2725.697	17.12
2739.744	21.12
2753.743	28.12
2767.695	37.12
2781.598	21.12
2795.455	24.12
2809.264	14.12
2823.026	18.12
2836.742	19.12
2850.412	11.12
2864.035	14.12
2877.613	5.12
2891.145	1.12
2904.631	3.12
2918.073	-2.88
2931.469	-4.88
2944.821	-10.88
2958.128	-8.88
2971.39	-16.88
2984.609	-20.88
2997.784	-11.88
3010.915	-19.88
3024.002	-25.88
3037.046	-28.88
3050.048	-30.88
3063.006	-32.88
3075.922	-36.88
3088.795	-37.88
3101.627	-34.88
3114.416	-31.88
3127.163	-33.88
3139.869	-36.88
3152.533	-44.88
3165.157	-40.88
3177.739	-42.88
3190.28	-42.88
3202.781	-50.88
3215.241	-48.88
3227.661	-48.88
3240.041	-49.88
3252.382	-48.88
3264.682	-45.88
3276.943	-52.88
3289.165	-49.88
3301.348	-50.88
3313.492	-50.88
3325.597	-56.88
3337.663	-67.88
3349.691	-58.88
3361.681	-59.88
3373.633	-54.88
3385.547	-63.88
3397.424	-59.88
3409.263	-59.88
3421.065	-65.88
3432.829	-65.88
3444.557	-56.88
3456.247	-61.88
3467.902	-66.88
3479.519	-61.88
3491.101	-66.88
3502.646	-60.88
3514.155	-60.88
3525.629	-66.88
3537.067	-61.88
3548.469	-69.88
3559.837	-64.88
3571.169	-70.88
3582.466	-64.88
3593.728	-68.88
3604.956	-65.88
3616.149	-75.88
3627.307	-75.88
3638.432	-71.88
3649.523	-75.88
3660.579	-74.88
3671.602	-74.88
3682.591	-71.88
3693.547	-66.88
3704.47	-75.88
3715.359	-67.88
3726.216	-71.88
3737.039	-77.88
3747.83	-72.88
3758.589	-73.88
3769.315	-72.88
3780.008	-78.88
3790.67	-74.88
3801.299	-78.88
3811.897	-77.88
3822.463	-75.88
3832.998	-75.88
3843.501	-74.88
3853.973	-71.88
3864.414	-71.88
3874.823	-32.88
3885.202	66.12
3895.55	-58.88
3905.868	-75.88
3916.155	-72.88
3926.411	-71.88
3936.638	-73.88
3946.834	-69.88
3957	-71.88
3967.137	-68.88
3977.244	-71.88
3987.321	-72.88
3997.369	-74.88
4007.388	-68.88
4017.377	-66.88
4027.338	-67.88
4037.269	-68.88
4047.172	-74.88
4057.046	-72.88
4066.891	-79.88
4076.708	-75.88
4086.497	-76.88
4096.257	-73.88
4105.989	46.12
4115.694	30.12
4125.37	-77.88
4135.019	-77.88
4142.237	-78.88

File: water 4_RamanShift_1.txt
Data from water 4_RamanShift_1.txt Node

Date: Tue Aug 29 12:30:37 IDT 2017
User: aro
Spectrometer: QEPB0276
Trigger mode: 0
Integration Time (sec): 3.000000E1
Scans to average: 1
Electric dark correction enabled: true
Nonlinearity correction enabled: false
Boxcar width: 0
XAxis mode: Raman Shifts
Number of Pixels in Spectrum: 1044
>>>>>Begin Spectral Data<<<<<
160.701	32.38
184.826	400.38
208.845	1761.38
232.758	1797.38
256.565	1852.38
280.267	1935.38
303.865	2041.38
327.359	2105.38
350.751	2192.38
374.04	2455.38
397.228	2471.38
420.315	3990.38
443.302	2553.38
466.189	2282.38
488.978	2170.38
511.668	1635.38
534.261	1136.38
556.756	970.38
579.155	950.38
601.459	919.38
623.667	878.38
645.781	1280.38
667.8	826.38
689.726	724.38
711.56	692.38
733.301	713.38
754.951	867.38
776.509	789.38
797.977	875.38
819.355	845.38
840.644	766.38
861.844	665.38
882.955	607.38
903.979	571.38
924.916	574.38
945.766	568.38
966.529	547.38
987.208	533.38
1007.801	551.38
1028.309	572.38
1048.734	586.38
1069.075	600.38
1089.333	577.38
1109.509	554.38
1129.602	504.38
1149.614	513.38
1169.545	538.38
1189.395	539.38
1209.165	542.38
1228.856	557.38
1248.467	531.38
1268	468.38
1287.455	458.38
1306.832	475.38
1326.132	470.38
1345.354	462.38
1364.501	451.38
1383.572	433.38
1402.567	418.38
1421.487	405.38
1440.333	419.38
1459.104	429.38
1477.802	423.38
1496.426	421.38
1514.978	458.38
1533.457	439.38
1551.864	407.38
1570.199	397.38
1588.464	378.38
1606.657	372.38
1624.78	365.38
1642.834	363.38
1660.817	372.38
1678.732	377.38
1696.577	377.38
1714.355	372.38
1732.064	333.38
1749.705	315.38
1767.28	290.38
1784.787	332.38
1802.228	302.38
1819.603	286.38
1836.913	269.38
1854.156	262.38
1871.335	265.38
1888.449	265.38
1905.499	261.38
1922.485	279.38
1939.408	265.38
1956.267	255.38
1973.063	236.38
1989.797	209.38
2006.469	215.38
2023.078	205.38
2039.627	191.38
2056.114	195.38
2072.54	210.38
2088.906	203.38
2105.211	201.38
2121.457	174.38
2137.643	171.38
2153.77	164.38
2169.838	157.38
2185.848	147.38
2201.799	146.38
2217.693	142.38
2233.529	144.38
2249.307	135.38
2265.029	124.38
2280.694	121.38
2296.302	110.38
2311.854	106.38
2327.351	110.38
2342.792	94.38
2358.178	85.38
2373.508	92.38
2388.785	88.38
2404.007	86.38
2419.174	88.38
2434.289	80.38
2449.349	73.38
2464.356	65.38
2479.311	63.38
2494.213	66.38
2509.062	63.38
2523.859	56.38
2538.605	56.38
2553.299	62.38
2567.941	54.38
2582.533	58.38
2597.073	43.38
2611.564	48.38
2626.004	35.38
2640.394	38.38
2654.734	32.38
2669.025	28.38
2683.266	30.38
2697.458	20.38
2711.602	13.38
2725.697	10.38
2739.744	18.38
2753.743	11.38
2767.695	20.38
2781.598	12.38
2795.455	10.38
2809.264	-0.62
2823.026	7.38
2836.742	10.38
2850.412	0.38
2864.035	2.38
2877.613	-8.62
2891.145	-3.62
2904.631	-14.62
2918.073	-20.62
2931.469	-18.62
2944.821	-22.62
2958.128	-23.62
2971.39	-23.62
2984.609	-30.62
2997.784	-22.62
3010.915	-29.62
3024.002	-35.62
3037.046	-34.62
3050.048	-32.62
3063.006	-44.62
3075.922	-43.62
3088.795	-42.62
3101.627	-35.62
3114.416	-37.62
3127.163	-38.62
3139.869	-40.62
3152.533	-44.62
3165.157	-48.62
3177.739	-51.62
3190.28	-53.62
3202.781	-58.62
3215.241	-55.62
3227.661	-54.62
3240.041	-58.62
3252.382	-54.62
3264.682	-55.62
3276.943	-56.62
3289.165	-62.62
3301.348	-59.62
3313.492	-61.62
3325.597	-70.62
3337.663	-69.62
3349.691	-64.62
3361.681	-59.62
3373.633	-56.62
3385.547	-67.62
3397.424	-58.62
3409.263	-66.62
3421.065	-62.62
3432.829	-67.62
3444.557	-64.62
3456.247	-67.62
3467.902	-68.62
3479.519	-63.62
3491.101	-71.62
3502.646	-69.62
3514.155	-70.62
3525.629	-74.62
3537.067	-69.62
3548.469	-73.62
3559.837	-67.62
3571.169	-70.62
3582.466	-67.62
3593.728	-64.62
3604.956	-71.62
3616.149	-77.62
3627.307	-71.62
3638.432	-73.62
3649.523	-74.62
3660.579	-77.62
3671.602	-72.62
3682.591	-78.62
3693.547	-75.62
3704.47	-82.62
3715.359	-75.62
3726.216	-80.62
3737.039	-82.62
3747.83	-79.62
3758.589	-76.62
3769.315	-80.62
3780.008	-83.62
3790.67	-72.62
3801.299	-77.62
3811.897	-77.62
3822.463	-74.62
3832.998	-71.62
3843.501	-70.62
3853.973	-74.62
3864.414	-69.62
3874.823	-36.62
3885.202	65.38
3895.55	-56.62
3905.868	-75.62
3916.155	-68.62
3926.411	-79.62
3936.638	-78.62
3946.834	-75.62
3957	-76.62
3967.137	-79.62
3977.244	-71.62
3987.321	-79.62
3997.369	-79.62
4007.388	-77.62
4017.377	-75.62
4027.338	-75.62
4037.269	-80.62
4047.172	-73.62
4057.046	-76.62
4066.891	-78.62
4076.708	-74.62
4086.497	-80.62
4096.257	-78.62
4105.989	54.38
4115.694	34.38
4125.37	-76.62
4135.019	-78.62
4142.237	-81.62

File: water 4_RamanShift_2.txt
Data from water 4_RamanShift_2.txt Node

Date: Tue Aug 29 12:31:07 IDT 2017
User: aro
Spectrometer: QEPB0276
Trigger mode: 0
Integration Time (sec): 3.000000E1
Scans to average: 1
Electric dark correction enabled: true
Nonlinearity correction enabled: false
Boxcar width: 0
XAxis mode: Raman Shifts
Number of Pixels in Spectrum: 1044
>>>>>Begin Spectral Data<<<<<
160.701	33.62
184.826	392.62
208.845	1746.62
232.758	1796.62
256.565	1839.62
280.267	1903.62
303.865	1997.62
327.359	2107.62
350.751	2188.62
374.04	2426.62
397.228	2453.62
420.315	3974.62
443.302	2534.62
466.189	2277.62
488.978	2173.62
511.668	1626.62
534.261	1109.62
556.756	960.62
579.155	944.62
601.459	918.62
623.667	863.62
645.781	1278.62
667.8	812.62
689.726	718.62
711.56	702.62
733.301	709.62
754.951	861.62
776.509	794.62
797.977	869.62
819.355	828.62
840.644	755.62
861.844	655.62
882.955	582.62
903.979	581.62
924.916	575.62
945.766	559.62
966.529	537.62
987.208	524.62
1007.801	547.62
1028.309	570.62
1048.734	596.62
1069.075	589.62
1089.333	586.62
1109.509	551.62
1129.602	505.62
1149.614	516.62
1169.545	538.62
1189.395	530.62
1209.165	523.62
1228.856	537.62
1248.467	520.62
1268	468.62
1287.455	449.62
1306.832	475.62
1326.132	469.62
1345.354	453.62
1364.501	456.62
1383.572	429.62
1402.567	405.62
1421.487	396.62
1440.333	404.62
1459.104	430.62
1477.802	417.62
1496.426	425.62
1514.978	440.62
1533.457	425.62
1551.864	409.62
1570.199	382.62
1588.464	371.62
1606.657	359.62
1624.78	356.62
1642.834	374.62
1660.817	379.62
1678.732	364.62
1696.577	372.62
1714.355	356.62
1732.064	328.62
1749.705	304.62
1767.28	289.62
1784.787	300.62
1802.228	291.62
1819.603	275.62
1836.913	249.62
1854.156	254.62
1871.335	260.62
1888.449	268.62
1905.499	259.62
1922.485	270.62
1939.408	268.62
1956.267	267.62
1973.063	232.62
1989.797	203.62
2006.469	210.62
2023.078	197.62
2039.627	197.62
2056.114	185.62
2072.54	200.62
2088.906	207.62
2105.211	203.62
2121.457	175.62
2137.643	164.62
2153.77	164.62
2169.838	148.62
2185.848	142.62
2201.799	137.62
2217.693	136.62
2233.529	140.62
2249.307	128.62
2265.029	123.62
2280.694	111.62
2296.302	112.62
2311.854	104.62
2327.351	113.62
2342.792	94.62
2358.178	98.62
2373.508	85.62
2388.785	89.62
2404.007	80.62
2419.174	83.62
2434.289	81.62
2449.349	65.62
2464.356	59.62
2479.311	59.62
2494.213	65.62
2509.062	63.62
2523.859	61.62
2538.605	56.62
2553.299	55.62
2567.941	52.62
2582.533	50.62
2597.073	48.62
2611.564	42.62
2626.004	38.62
2640.394	38.62
2654.734	30.62
2669.025	26.62
2683.266	25.62
2697.458	17.62
2711.602	7.62
2725.697	7.62
2739.744	13.62
2753.743	13.62
2767.695	19.62
2781.598	8.62
2795.455	5.62
2809.264	2.62
2823.026	3.62
2836.742	1.62
2850.412	-2.38
2864.035	4.62
2877.613	-14.38
2891.145	-7.38
2904.631	-18.38
2918.073	-20.38
2931.469	-17.38
2944.821	-26.38
2958.128	-24.38
2971.39	-23.38
2984.609	-31.38
2997.784	-25.38
3010.915	-26.38
3024.002	-39.38
3037.046	-35.38
3050.048	-35.38
3063.006	-39.38
3075.922	-42.38
3088.795	-43.38
3101.627	-37.38
3114.416	-37.38
3127.163	-39.38
3139.869	-41.38
3152.533	-48.38
3165.157	-46.38
3177.739	-46.38
3190.28	-53.38
3202.781	-59.38
3215.241	-59.38
3227.661	-58.38
3240.041	-59.38
3252.382	-54.38
3264.682	-59.38
3276.943	-57.38
3289.165	-52.38
3301.348	-64.38
3313.492	-63.38
3325.597	-64.38
3337.663	-65.38
3349.691	-67.38
3361.681	-60.38
3373.633	-63.38
3385.547	-68.38
3397.424	-62.38
3409.263	-65.38
3421.065	-63.38
3432.829	-64.38
3444.557	-65.38
3456.247	-65.38
3467.902	-73.38
3479.519	-65.38
3491.101	-68.38
3502.646	-68.38
3514.155	-65.38
3525.629	-72.38
3537.067	-72.38
3548.469	-74.38
3559.837	-64.38
3571.169	-75.38
3582.466	-71.38
3593.728	-68.38
3604.956	-74.38
3616.149	-81.38
3627.307	-76.38
3638.432	-72.38
3649.523	-79.38
3660.579	-78.38
3671.602	-76.38
3682.591	-76.38
3693.547	-77.38
3704.47	-78.38
3715.359	-77.38
3726.216	-79.38
3737.039	-76.38
3747.83	-76.38
3758.589	-78.38
3769.315	-74.38
3780.008	-84.38
3790.67	-77.38
3801.299	-72.38
3811.897	-78.38
3822.463	-76.38
3832.998	-72.38
3843.501	-75.38
3853.973	-74.38
3864.414	-72.38
3874.823	-44.38
3885.202	60.62
3895.55	-60.38
3905.868	-75.38
3916.155	-77.38
3926.411	-80.38
3936.638	-79.38
3946.834	-76.38
3957	-78.38
3967.137	-79.38
3977.244	-78.38
3987.321	-77.38
3997.369	-78.38
4007.388	-68.38
4017.377	-72.38
4027.338	-72.38
4037.269	-76.38
4047.172	-74.38
4057.046	-78.38
4066.891	-76.38
4076.708	-76.38
4086.497	-80.38
4096.257	-79.38
4105.989	45.62
4115.694	34.62
4125.37	-78.38
4135.019	-74.38
4142.237	-78.38

File: water 4_RamanShift_3.txt
Data from water 4_RamanShift_3.txt Node

Date: Tue Aug 29 12:31:37 IDT 2017
User: aro
Spectrometer: QEPB0276
Trigger mode: 0
Integration Time (sec): 3.000000E1
Scans to average: 1
Electric dark correction enabled: true
Nonlinearity correction enabled: false
Boxcar width: 0
XAxis mode: Raman Shifts
Number of Pixels in Spectrum: 1044
>>>>>Begin Spectral Data<<<<<
160.701	37.25
184.826	393.25
208.845	1751.25
232.758	1768.25
256.565	1856.25
280.267	1922.25
303.865	2032.25
327.359	2101.25
350.751	2186.25
374.04	2410.25
397.228	2454.25
420.315	3984.25
443.302	2529.25
466.189	2277.25
488.978	2149.25
511.668	1641.25
534.261	1111.25
556.756	955.25
579.155	929.25
601.459	902.25
623.667	852.25
645.781	1271.25
667.8	817.25
689.726	718.25
711.56	684.25
733.301	706.25
754.951	848.25
776.509	791.25
797.977	863.25
819.355	826.25
840.644	767.25
861.844	660.25
882.955	590.25
903.979	569.25
924.916	567.25
945.766	557.25
966.529	539.25
987.208	528.25
1007.801	545.25
1028.309	570.25
1048.734	598.25
1069.075	593.25
1089.333	578.25
1109.509	540.25
1129.602	496.25
1149.614	504.25
1169.545	532.25
1189.395	525.25
1209.165	534.25
1228.856	541.25
1248.467	517.25
1268	462.25
1287.455	454.25
1306.832	474.25
1326.132	463.25
1345.354	455.25
1364.501	434.25
1383.572	427.25
1402.567	414.25
1421.487	402.25
1440.333	408.25
1459.104	423.25
1477.802	421.25
1496.426	429.25
1514.978	443.25
1533.457	420.25
1551.864	409.25
1570.199	382.25
1588.464	372.25
1606.657	362.25
1624.78	364.25
1642.834	362.25
1660.817	364.25
1678.732	366.25
1696.577	369.25
1714.355	349.25
1732.064	332.25
1749.705	303.25
1767.28	289.25
1784.787	289.25
1802.228	300.25
1819.603	276.25
1836.913	271.25
1854.156	261.25
1871.335	271.25
1888.449	261.25
1905.499	251.25
1922.485	262.25
1939.408	269.25
1956.267	255.25
1973.063	227.25
1989.797	206.25
2006.469	213.25
2023.078	198.25
2039.627	190.25
2056.114	202.25
2072.54	197.25
2088.906	206.25
2105.211	197.25
2121.457	180.25
2137.643	174.25
2153.77	169.25
2169.838	149.25
2185.848	149.25
2201.799	141.25
2217.693	136.25
2233.529	143.25
2249.307	128.25
2265.029	125.25
2280.694	108.25
2296.302	109.25
2311.854	105.25
2327.351	113.25
2342.792	95.25
2358.178	85.25
2373.508	88.25
2388.785	91.25
2404.007	82.25
2419.174	85.25
2434.289	81.25
2449.349	71.25
2464.356	69.25
2479.311	72.25
2494.213	72.25
2509.062	61.25
2523.859	60.25
2538.605	62.25
2553.299	53.25
2567.941	54.25
2582.533	53.25
2597.073	46.25
2611.564	44.25
2626.004	34.25
2640.394	39.25
2654.734	33.25
2669.025	23.25
2683.266	24.25
2697.458	17.25
2711.602	22.25
2725.697	8.25
2739.744	15.25
2753.743	14.25
2767.695	18.25
2781.598	13.25
2795.455	12.25
2809.264	4.25
2823.026	7.25
2836.742	8.25
2850.412	-2.75
2864.035	4.25
2877.613	-8.75
2891.145	-5.75
2904.631	-14.75
2918.073	-17.75
2931.469	-16.75
2944.821	-23.75
2958.128	-27.75
2971.39	-22.75
2984.609	-29.75
2997.784	-22.75
3010.915	-27.75
3024.002	-33.75
3037.046	-31.75
3050.048	-37.75
3063.006	-40.75
3075.922	-39.75
3088.795	-42.75
3101.627	-42.75
3114.416	-39.75
3127.163	-39.75
3139.869	-40.75
3152.533	-44.75
3165.157	-46.75
3177.739	-48.75
3190.28	-51.75
3202.781	-53.75
3215.241	-53.75
3227.661	-56.75
3240.041	-57.75
3252.382	-55.75
3264.682	-57.75
3276.943	-58.75
3289.165	-56.75
3301.348	-56.75
3313.492	-63.75
3325.597	-61.75
3337.663	-67.75
3349.691	-60.75
3361.681	-60.75
3373.633	-60.75
3385.547	-59.75
3397.424	-60.75
3409.263	-66.75
3421.065	-62.75
3432.829	-68.75
3444.557	-63.75
3456.247	-67.75
3467.902	-68.75
3479.519	-63.75
3491.101	-69.75
3502.646	-66.75
3514.155	-66.75
3525.629	-70.75
3537.067	-69.75
3548.469	-71.75
3559.837	-66.75
3571.169	-69.75
3582.466	-67.75
3593.728	-69.75
3604.956	-68.75
3616.149	-77.75
3627.307	-72.75
3638.432	-73.75
3649.523	-74.75
3660.579	-68.75
3671.602	-73.75
3682.591	-74.75
3693.547	-72.75
3704.47	-83.75
3715.359	-74.75
3726.216	-84.75
3737.039	-81.75
3747.83	-78.75
3758.589	-77.75
3769.315	-72.75
3780.008	-86.75
3790.67	-74.75
3801.299	-77.75
3811.897	-71.75
3822.463	-76.75
3832.998	-73.75
3843.501	-72.75
3853.973	-72.75
3864.414	-75.75
3874.823	-39.75
3885.202	58.25
3895.55	-56.75
3905.868	-76.75
3916.155	-75.75
3926.411	-72.75
3936.638	-77.75
3946.834	-73.75
3957	-74.75
3967.137	-71.75
3977.244	-74.75
3987.321	-75.75
3997.369	-72.75
4007.388	-71.75
4017.377	-72.75
4027.338	-71.75
4037.269	-76.75
4047.172	-72.75
4057.046	-73.75
4066.891	-78.75
4076.708	-79.75
4086.497	-74.75
4096.257	-74.75
4105.989	51.25
4115.694	36.25
4125.37	-76.75
4135.019	-77.75
4142.237	-81.75