Folder: Water/Data/Raman/2017-08-29 - Alluminum 2/Aug 29 2017 - Aluminum 2 (part 11)

File: EC 110 5_RamanShift_1.txt
Data from EC 110 5_RamanShift_1.txt Node

Date: Tue Aug 29 12:51:07 IDT 2017
User: aro
Spectrometer: QEPB0276
Trigger mode: 0
Integration Time (sec): 3.000000E1
Scans to average: 1
Electric dark correction enabled: true
Nonlinearity correction enabled: false
Boxcar width: 0
XAxis mode: Raman Shifts
Number of Pixels in Spectrum: 1044
>>>>>Begin Spectral Data<<<<<
160.701	29.88
184.826	431.88
208.845	1891.88
232.758	2026.88
256.565	2195.88
280.267	2341.88
303.865	2507.88
327.359	2592.88
350.751	2663.88
374.04	2899.88
397.228	2944.88
420.315	4263.88
443.302	2997.88
466.189	2773.88
488.978	2659.88
511.668	2124.88
534.261	1613.88
556.756	1472.88
579.155	1452.88
601.459	1411.88
623.667	1364.88
645.781	1702.88
667.8	1310.88
689.726	1221.88
711.56	1196.88
733.301	1193.88
754.951	1346.88
776.509	1295.88
797.977	1373.88
819.355	1307.88
840.644	1262.88
861.844	1179.88
882.955	1119.88
903.979	1082.88
924.916	1082.88
945.766	1083.88
966.529	1050.88
987.208	1023.88
1007.801	1054.88
1028.309	1091.88
1048.734	1111.88
1069.075	1088.88
1089.333	1092.88
1109.509	1056.88
1129.602	986.88
1149.614	1007.88
1169.545	1027.88
1189.395	1011.88
1209.165	1019.88
1228.856	1033.88
1248.467	1008.88
1268	936.88
1287.455	908.88
1306.832	926.88
1326.132	917.88
1345.354	834.88
1364.501	846.88
1383.572	877.88
1402.567	842.88
1421.487	804.88
1440.333	805.88
1459.104	810.88
1477.802	771.88
1496.426	779.88
1514.978	842.88
1533.457	839.88
1551.864	794.88
1570.199	783.88
1588.464	759.88
1606.657	724.88
1624.78	696.88
1642.834	698.88
1660.817	711.88
1678.732	683.88
1696.577	670.88
1714.355	709.88
1732.064	690.88
1749.705	628.88
1767.28	573.88
1784.787	551.88
1802.228	600.88
1819.603	595.88
1836.913	563.88
1854.156	545.88
1871.335	544.88
1888.449	541.88
1905.499	533.88
1922.485	548.88
1939.408	576.88
1956.267	567.88
1973.063	530.88
1989.797	475.88
2006.469	465.88
2023.078	455.88
2039.627	423.88
2056.114	426.88
2072.54	437.88
2088.906	455.88
2105.211	451.88
2121.457	428.88
2137.643	404.88
2153.77	399.88
2169.838	378.88
2185.848	367.88
2201.799	341.88
2217.693	341.88
2233.529	354.88
2249.307	345.88
2265.029	329.88
2280.694	314.88
2296.302	305.88
2311.854	292.88
2327.351	307.88
2342.792	287.88
2358.178	282.88
2373.508	288.88
2388.785	277.88
2404.007	273.88
2419.174	256.88
2434.289	253.88
2449.349	244.88
2464.356	229.88
2479.311	230.88
2494.213	229.88
2509.062	218.88
2523.859	221.88
2538.605	215.88
2553.299	218.88
2567.941	227.88
2582.533	218.88
2597.073	202.88
2611.564	205.88
2626.004	186.88
2640.394	181.88
2654.734	165.88
2669.025	152.88
2683.266	155.88
2697.458	135.88
2711.602	121.88
2725.697	117.88
2739.744	117.88
2753.743	123.88
2767.695	125.88
2781.598	115.88
2795.455	108.88
2809.264	100.88
2823.026	106.88
2836.742	108.88
2850.412	93.88
2864.035	96.88
2877.613	78.88
2891.145	71.88
2904.631	65.88
2918.073	56.88
2931.469	52.88
2944.821	52.88
2958.128	41.88
2971.39	33.88
2984.609	32.88
2997.784	44.88
3010.915	30.88
3024.002	20.88
3037.046	20.88
3050.048	6.88
3063.006	7.88
3075.922	3.88
3088.795	1.88
3101.627	-2.12
3114.416	6.88
3127.163	-1.12
3139.869	3.88
3152.533	-5.12
3165.157	-13.12
3177.739	-11.12
3190.28	-16.12
3202.781	-22.12
3215.241	-28.12
3227.661	-28.12
3240.041	-33.12
3252.382	-26.12
3264.682	-39.12
3276.943	-29.12
3289.165	-33.12
3301.348	-38.12
3313.492	-42.12
3325.597	-47.12
3337.663	-52.12
3349.691	-45.12
3361.681	-48.12
3373.633	-50.12
3385.547	-52.12
3397.424	-51.12
3409.263	-54.12
3421.065	-56.12
3432.829	-55.12
3444.557	-52.12
3456.247	-62.12
3467.902	-61.12
3479.519	-56.12
3491.101	-58.12
3502.646	-58.12
3514.155	-61.12
3525.629	-64.12
3537.067	-63.12
3548.469	-69.12
3559.837	-62.12
3571.169	-67.12
3582.466	-60.12
3593.728	-61.12
3604.956	-67.12
3616.149	-72.12
3627.307	-70.12
3638.432	-65.12
3649.523	-68.12
3660.579	-71.12
3671.602	-71.12
3682.591	-69.12
3693.547	-69.12
3704.47	-75.12
3715.359	-74.12
3726.216	-77.12
3737.039	-76.12
3747.83	-74.12
3758.589	-77.12
3769.315	-76.12
3780.008	-83.12
3790.67	-79.12
3801.299	-75.12
3811.897	-77.12
3822.463	-76.12
3832.998	-72.12
3843.501	-73.12
3853.973	-70.12
3864.414	-71.12
3874.823	-42.12
3885.202	35.88
3895.55	-60.12
3905.868	-77.12
3916.155	-78.12
3926.411	-72.12
3936.638	-77.12
3946.834	-77.12
3957	-74.12
3967.137	-74.12
3977.244	-70.12
3987.321	-74.12
3997.369	-77.12
4007.388	-74.12
4017.377	-70.12
4027.338	-68.12
4037.269	-76.12
4047.172	-75.12
4057.046	-73.12
4066.891	-79.12
4076.708	-78.12
4086.497	-79.12
4096.257	-78.12
4105.989	42.88
4115.694	26.88
4125.37	-78.12
4135.019	-79.12
4142.237	-81.12

File: EC 110 5_RamanShift_2.txt
Data from EC 110 5_RamanShift_2.txt Node

Date: Tue Aug 29 12:51:37 IDT 2017
User: aro
Spectrometer: QEPB0276
Trigger mode: 0
Integration Time (sec): 3.000000E1
Scans to average: 1
Electric dark correction enabled: true
Nonlinearity correction enabled: false
Boxcar width: 0
XAxis mode: Raman Shifts
Number of Pixels in Spectrum: 1044
>>>>>Begin Spectral Data<<<<<
160.701	33.5
184.826	418.5
208.845	1847.5
232.758	1974.5
256.565	2134.5
280.267	2296.5
303.865	2455.5
327.359	2523.5
350.751	2617.5
374.04	2835.5
397.228	2888.5
420.315	4186.5
443.302	2961.5
466.189	2698.5
488.978	2609.5
511.668	2085.5
534.261	1549.5
556.756	1408.5
579.155	1377.5
601.459	1359.5
623.667	1319.5
645.781	1654.5
667.8	1256.5
689.726	1176.5
711.56	1133.5
733.301	1147.5
754.951	1299.5
776.509	1241.5
797.977	1327.5
819.355	1288.5
840.644	1237.5
861.844	1134.5
882.955	1082.5
903.979	1050.5
924.916	1041.5
945.766	1046.5
966.529	1019.5
987.208	991.5
1007.801	1031.5
1028.309	1063.5
1048.734	1065.5
1069.075	1054.5
1089.333	1045.5
1109.509	1021.5
1129.602	961.5
1149.614	956.5
1169.545	986.5
1189.395	969.5
1209.165	965.5
1228.856	1004.5
1248.467	959.5
1268	904.5
1287.455	881.5
1306.832	902.5
1326.132	878.5
1345.354	816.5
1364.501	830.5
1383.572	842.5
1402.567	826.5
1421.487	788.5
1440.333	782.5
1459.104	789.5
1477.802	756.5
1496.426	772.5
1514.978	829.5
1533.457	815.5
1551.864	789.5
1570.199	772.5
1588.464	744.5
1606.657	700.5
1624.78	687.5
1642.834	678.5
1660.817	695.5
1678.732	682.5
1696.577	673.5
1714.355	698.5
1732.064	663.5
1749.705	600.5
1767.28	576.5
1784.787	546.5
1802.228	596.5
1819.603	568.5
1836.913	544.5
1854.156	536.5
1871.335	525.5
1888.449	539.5
1905.499	514.5
1922.485	535.5
1939.408	564.5
1956.267	555.5
1973.063	501.5
1989.797	470.5
2006.469	455.5
2023.078	445.5
2039.627	411.5
2056.114	409.5
2072.54	437.5
2088.906	449.5
2105.211	442.5
2121.457	424.5
2137.643	403.5
2153.77	400.5
2169.838	370.5
2185.848	356.5
2201.799	354.5
2217.693	346.5
2233.529	342.5
2249.307	327.5
2265.029	318.5
2280.694	313.5
2296.302	298.5
2311.854	285.5
2327.351	309.5
2342.792	269.5
2358.178	271.5
2373.508	270.5
2388.785	272.5
2404.007	263.5
2419.174	265.5
2434.289	257.5
2449.349	237.5
2464.356	223.5
2479.311	228.5
2494.213	225.5
2509.062	215.5
2523.859	216.5
2538.605	214.5
2553.299	222.5
2567.941	212.5
2582.533	208.5
2597.073	204.5
2611.564	204.5
2626.004	184.5
2640.394	185.5
2654.734	164.5
2669.025	159.5
2683.266	145.5
2697.458	132.5
2711.602	118.5
2725.697	110.5
2739.744	111.5
2753.743	121.5
2767.695	123.5
2781.598	109.5
2795.455	101.5
2809.264	105.5
2823.026	103.5
2836.742	99.5
2850.412	88.5
2864.035	89.5
2877.613	79.5
2891.145	78.5
2904.631	68.5
2918.073	59.5
2931.469	53.5
2944.821	50.5
2958.128	37.5
2971.39	36.5
2984.609	30.5
2997.784	38.5
3010.915	36.5
3024.002	15.5
3037.046	22.5
3050.048	9.5
3063.006	9.5
3075.922	9.5
3088.795	3.5
3101.627	7.5
3114.416	8.5
3127.163	2.5
3139.869	5.5
3152.533	-9.5
3165.157	-11.5
3177.739	-8.5
3190.28	-18.5
3202.781	-23.5
3215.241	-21.5
3227.661	-31.5
3240.041	-33.5
3252.382	-31.5
3264.682	-36.5
3276.943	-35.5
3289.165	-33.5
3301.348	-40.5
3313.492	-45.5
3325.597	-48.5
3337.663	-51.5
3349.691	-51.5
3361.681	-45.5
3373.633	-46.5
3385.547	-50.5
3397.424	-48.5
3409.263	-49.5
3421.065	-52.5
3432.829	-55.5
3444.557	-51.5
3456.247	-58.5
3467.902	-61.5
3479.519	-55.5
3491.101	-60.5
3502.646	-54.5
3514.155	-60.5
3525.629	-64.5
3537.067	-63.5
3548.469	-69.5
3559.837	-60.5
3571.169	-68.5
3582.466	-68.5
3593.728	-60.5
3604.956	-67.5
3616.149	-71.5
3627.307	-66.5
3638.432	-70.5
3649.523	-71.5
3660.579	-67.5
3671.602	-70.5
3682.591	-71.5
3693.547	-66.5
3704.47	-70.5
3715.359	-66.5
3726.216	-77.5
3737.039	-77.5
3747.83	-76.5
3758.589	-73.5
3769.315	-71.5
3780.008	-79.5
3790.67	-72.5
3801.299	-75.5
3811.897	-76.5
3822.463	-76.5
3832.998	-72.5
3843.501	-66.5
3853.973	-73.5
3864.414	-72.5
3874.823	-43.5
3885.202	41.5
3895.55	-62.5
3905.868	-74.5
3916.155	-71.5
3926.411	-72.5
3936.638	-79.5
3946.834	-74.5
3957	-74.5
3967.137	-71.5
3977.244	-74.5
3987.321	-72.5
3997.369	-76.5
4007.388	-70.5
4017.377	-69.5
4027.338	-68.5
4037.269	-69.5
4047.172	-72.5
4057.046	-71.5
4066.891	-76.5
4076.708	-77.5
4086.497	-81.5
4096.257	-74.5
4105.989	42.5
4115.694	28.5
4125.37	-80.5
4135.019	-79.5
4142.237	-85.5

File: EC 110 5_RamanShift_3.txt
Data from EC 110 5_RamanShift_3.txt Node

Date: Tue Aug 29 12:52:37 IDT 2017
User: aro
Spectrometer: QEPB0276
Trigger mode: 0
Integration Time (sec): 3.000000E1
Scans to average: 1
Electric dark correction enabled: true
Nonlinearity correction enabled: false
Boxcar width: 0
XAxis mode: Raman Shifts
Number of Pixels in Spectrum: 1044
>>>>>Begin Spectral Data<<<<<
160.701	23.25
184.826	408.25
208.845	1804.25
232.758	1938.25
256.565	2109.25
280.267	2252.25
303.865	2411.25
327.359	2490.25
350.751	2572.25
374.04	2807.25
397.228	2830.25
420.315	4167.25
443.302	2886.25
466.189	2677.25
488.978	2597.25
511.668	2035.25
534.261	1520.25
556.756	1380.25
579.155	1364.25
601.459	1332.25
623.667	1280.25
645.781	1617.25
667.8	1205.25
689.726	1134.25
711.56	1112.25
733.301	1137.25
754.951	1264.25
776.509	1207.25
797.977	1303.25
819.355	1250.25
840.644	1199.25
861.844	1112.25
882.955	1049.25
903.979	1022.25
924.916	997.25
945.766	1003.25
966.529	993.25
987.208	950.25
1007.801	978.25
1028.309	1016.25
1048.734	1029.25
1069.075	1023.25
1089.333	1019.25
1109.509	987.25
1129.602	935.25
1149.614	939.25
1169.545	982.25
1189.395	951.25
1209.165	943.25
1228.856	990.25
1248.467	952.25
1268	879.25
1287.455	849.25
1306.832	874.25
1326.132	869.25
1345.354	812.25
1364.501	811.25
1383.572	837.25
1402.567	807.25
1421.487	758.25
1440.333	784.25
1459.104	773.25
1477.802	750.25
1496.426	753.25
1514.978	809.25
1533.457	800.25
1551.864	777.25
1570.199	739.25
1588.464	727.25
1606.657	691.25
1624.78	660.25
1642.834	675.25
1660.817	684.25
1678.732	666.25
1696.577	651.25
1714.355	684.25
1732.064	652.25
1749.705	597.25
1767.28	562.25
1784.787	541.25
1802.228	591.25
1819.603	560.25
1836.913	534.25
1854.156	524.25
1871.335	525.25
1888.449	515.25
1905.499	508.25
1922.485	546.25
1939.408	557.25
1956.267	547.25
1973.063	505.25
1989.797	462.25
2006.469	456.25
2023.078	436.25
2039.627	409.25
2056.114	404.25
2072.54	416.25
2088.906	435.25
2105.211	439.25
2121.457	419.25
2137.643	403.25
2153.77	384.25
2169.838	363.25
2185.848	346.25
2201.799	339.25
2217.693	340.25
2233.529	350.25
2249.307	324.25
2265.029	317.25
2280.694	304.25
2296.302	301.25
2311.854	284.25
2327.351	294.25
2342.792	265.25
2358.178	268.25
2373.508	273.25
2388.785	262.25
2404.007	266.25
2419.174	252.25
2434.289	247.25
2449.349	232.25
2464.356	223.25
2479.311	223.25
2494.213	219.25
2509.062	218.25
2523.859	210.25
2538.605	211.25
2553.299	211.25
2567.941	215.25
2582.533	204.25
2597.073	193.25
2611.564	190.25
2626.004	182.25
2640.394	178.25
2654.734	165.25
2669.025	150.25
2683.266	151.25
2697.458	126.25
2711.602	112.25
2725.697	101.25
2739.744	109.25
2753.743	111.25
2767.695	120.25
2781.598	103.25
2795.455	102.25
2809.264	98.25
2823.026	101.25
2836.742	96.25
2850.412	93.25
2864.035	90.25
2877.613	84.25
2891.145	77.25
2904.631	62.25
2918.073	58.25
2931.469	55.25
2944.821	50.25
2958.128	36.25
2971.39	37.25
2984.609	32.25
2997.784	39.25
3010.915	33.25
3024.002	27.25
3037.046	27.25
3050.048	18.25
3063.006	8.25
3075.922	9.25
3088.795	2.25
3101.627	0.25
3114.416	6.25
3127.163	2.25
3139.869	1.25
3152.533	-5.75
3165.157	-9.75
3177.739	-10.75
3190.28	-18.75
3202.781	-20.75
3215.241	-26.75
3227.661	-33.75
3240.041	-31.75
3252.382	-27.75
3264.682	-28.75
3276.943	-31.75
3289.165	-35.75
3301.348	-35.75
3313.492	-41.75
3325.597	-43.75
3337.663	-51.75
3349.691	-43.75
3361.681	-48.75
3373.633	-44.75
3385.547	-41.75
3397.424	-46.75
3409.263	-54.75
3421.065	-53.75
3432.829	-50.75
3444.557	-48.75
3456.247	-58.75
3467.902	-60.75
3479.519	-52.75
3491.101	-55.75
3502.646	-56.75
3514.155	-59.75
3525.629	-62.75
3537.067	-63.75
3548.469	-62.75
3559.837	-61.75
3571.169	-61.75
3582.466	-65.75
3593.728	-59.75
3604.956	-64.75
3616.149	-69.75
3627.307	-73.75
3638.432	-68.75
3649.523	-63.75
3660.579	-68.75
3671.602	-64.75
3682.591	-67.75
3693.547	-71.75
3704.47	-72.75
3715.359	-66.75
3726.216	-71.75
3737.039	-72.75
3747.83	-68.75
3758.589	-70.75
3769.315	-72.75
3780.008	-84.75
3790.67	-73.75
3801.299	-73.75
3811.897	-70.75
3822.463	-74.75
3832.998	-67.75
3843.501	-69.75
3853.973	-71.75
3864.414	-75.75
3874.823	-42.75
3885.202	44.25
3895.55	-60.75
3905.868	-77.75
3916.155	-77.75
3926.411	-73.75
3936.638	-78.75
3946.834	-71.75
3957	-75.75
3967.137	-74.75
3977.244	-75.75
3987.321	-73.75
3997.369	-70.75
4007.388	-72.75
4017.377	-71.75
4027.338	-67.75
4037.269	-75.75
4047.172	-76.75
4057.046	-75.75
4066.891	-74.75
4076.708	-71.75
4086.497	-79.75
4096.257	-72.75
4105.989	40.25
4115.694	27.25
4125.37	-78.75
4135.019	-78.75
4142.237	-80.75

File: water 1_RamanShift_1.txt
Data from water 1_RamanShift_1.txt Node

Date: Tue Aug 29 12:02:37 IDT 2017
User: aro
Spectrometer: QEPB0276
Trigger mode: 0
Integration Time (sec): 3.000000E1
Scans to average: 1
Electric dark correction enabled: true
Nonlinearity correction enabled: false
Boxcar width: 0
XAxis mode: Raman Shifts
Number of Pixels in Spectrum: 1044
>>>>>Begin Spectral Data<<<<<
160.701	57.75
184.826	599.75
208.845	2593.75
232.758	2759.75
256.565	2932.75
280.267	3103.75
303.865	3296.75
327.359	3456.75
350.751	3595.75
374.04	4021.75
397.228	4095.75
420.315	6893.75
443.302	4228.75
466.189	3755.75
488.978	3568.75
511.668	2606.75
534.261	1693.75
556.756	1421.75
579.155	1389.75
601.459	1334.75
623.667	1259.75
645.781	2016.75
667.8	1173.75
689.726	1002.75
711.56	944.75
733.301	979.75
754.951	1250.75
776.509	1129.75
797.977	1275.75
819.355	1197.75
840.644	1079.75
861.844	883.75
882.955	775.75
903.979	750.75
924.916	725.75
945.766	715.75
966.529	696.75
987.208	687.75
1007.801	698.75
1028.309	737.75
1048.734	790.75
1069.075	783.75
1089.333	764.75
1109.509	704.75
1129.602	631.75
1149.614	659.75
1169.545	691.75
1189.395	681.75
1209.165	690.75
1228.856	685.75
1248.467	651.75
1268	583.75
1287.455	543.75
1306.832	564.75
1326.132	557.75
1345.354	541.75
1364.501	532.75
1383.572	515.75
1402.567	491.75
1421.487	466.75
1440.333	486.75
1459.104	495.75
1477.802	490.75
1496.426	497.75
1514.978	539.75
1533.457	509.75
1551.864	480.75
1570.199	450.75
1588.464	451.75
1606.657	431.75
1624.78	422.75
1642.834	436.75
1660.817	434.75
1678.732	440.75
1696.577	439.75
1714.355	416.75
1732.064	393.75
1749.705	352.75
1767.28	337.75
1784.787	340.75
1802.228	346.75
1819.603	320.75
1836.913	298.75
1854.156	288.75
1871.335	297.75
1888.449	289.75
1905.499	296.75
1922.485	306.75
1939.408	310.75
1956.267	295.75
1973.063	267.75
1989.797	240.75
2006.469	236.75
2023.078	232.75
2039.627	217.75
2056.114	213.75
2072.54	221.75
2088.906	228.75
2105.211	218.75
2121.457	202.75
2137.643	186.75
2153.77	171.75
2169.838	164.75
2185.848	160.75
2201.799	148.75
2217.693	148.75
2233.529	149.75
2249.307	138.75
2265.029	125.75
2280.694	122.75
2296.302	110.75
2311.854	99.75
2327.351	107.75
2342.792	93.75
2358.178	87.75
2373.508	86.75
2388.785	74.75
2404.007	72.75
2419.174	67.75
2434.289	70.75
2449.349	58.75
2464.356	49.75
2479.311	52.75
2494.213	55.75
2509.062	49.75
2523.859	45.75
2538.605	45.75
2553.299	40.75
2567.941	40.75
2582.533	31.75
2597.073	39.75
2611.564	24.75
2626.004	13.75
2640.394	16.75
2654.734	15.75
2669.025	2.75
2683.266	0.75
2697.458	-2.25
2711.602	-3.25
2725.697	-15.25
2739.744	-7.25
2753.743	-8.25
2767.695	-9.25
2781.598	-17.25
2795.455	-15.25
2809.264	-25.25
2823.026	-24.25
2836.742	-20.25
2850.412	-27.25
2864.035	-24.25
2877.613	-27.25
2891.145	-35.25
2904.631	-44.25
2918.073	-54.25
2931.469	-48.25
2944.821	-46.25
2958.128	-57.25
2971.39	-53.25
2984.609	-56.25
2997.784	-58.25
3010.915	-63.25
3024.002	-67.25
3037.046	-72.25
3050.048	-66.25
3063.006	-76.25
3075.922	-75.25
3088.795	-70.25
3101.627	-71.25
3114.416	-71.25
3127.163	-74.25
3139.869	-77.25
3152.533	-81.25
3165.157	-82.25
3177.739	-81.25
3190.28	-89.25
3202.781	-89.25
3215.241	-94.25
3227.661	-95.25
3240.041	-87.25
3252.382	-90.25
3264.682	-89.25
3276.943	-94.25
3289.165	-90.25
3301.348	-92.25
3313.492	-99.25
3325.597	-98.25
3337.663	-107.25
3349.691	-105.25
3361.681	-105.25
3373.633	-101.25
3385.547	-98.25
3397.424	-99.25
3409.263	-103.25
3421.065	-108.25
3432.829	-101.25
3444.557	-102.25
3456.247	-105.25
3467.902	-105.25
3479.519	-104.25
3491.101	-105.25
3502.646	-110.25
3514.155	-108.25
3525.629	-113.25
3537.067	-109.25
3548.469	-114.25
3559.837	-107.25
3571.169	-111.25
3582.466	-106.25
3593.728	-111.25
3604.956	-110.25
3616.149	-113.25
3627.307	-115.25
3638.432	-121.25
3649.523	-115.25
3660.579	-118.25
3671.602	-114.25
3682.591	-114.25
3693.547	-113.25
3704.47	-121.25
3715.359	-119.25
3726.216	-121.25
3737.039	-121.25
3747.83	-121.25
3758.589	-124.25
3769.315	-117.25
3780.008	-123.25
3790.67	-116.25
3801.299	-117.25
3811.897	-119.25
3822.463	-115.25
3832.998	-111.25
3843.501	-114.25
3853.973	-112.25
3864.414	-108.25
3874.823	-51.25
3885.202	128.75
3895.55	-88.25
3905.868	-117.25
3916.155	-116.25
3926.411	-122.25
3936.638	-123.25
3946.834	-117.25
3957	-114.25
3967.137	-115.25
3977.244	-121.25
3987.321	-118.25
3997.369	-119.25
4007.388	-112.25
4017.377	-110.25
4027.338	-111.25
4037.269	-118.25
4047.172	-115.25
4057.046	-114.25
4066.891	-118.25
4076.708	-119.25
4086.497	-118.25
4096.257	-120.25
4105.989	73.75
4115.694	47.75
4125.37	-122.25
4135.019	-123.25
4142.237	-125.25

File: water 1_RamanShift_2.txt
Data from water 1_RamanShift_2.txt Node

Date: Tue Aug 29 12:03:07 IDT 2017
User: aro
Spectrometer: QEPB0276
Trigger mode: 0
Integration Time (sec): 3.000000E1
Scans to average: 1
Electric dark correction enabled: true
Nonlinearity correction enabled: false
Boxcar width: 0
XAxis mode: Raman Shifts
Number of Pixels in Spectrum: 1044
>>>>>Begin Spectral Data<<<<<
160.701	53.25
184.826	590.25
208.845	2583.25
232.758	2746.25
256.565	2911.25
280.267	3064.25
303.865	3299.25
327.359	3382.25
350.751	3562.25
374.04	4002.25
397.228	4078.25
420.315	6813.25
443.302	4166.25
466.189	3732.25
488.978	3535.25
511.668	2568.25
534.261	1680.25
556.756	1408.25
579.155	1374.25
601.459	1327.25
623.667	1256.25
645.781	2021.25
667.8	1162.25
689.726	982.25
711.56	950.25
733.301	958.25
754.951	1234.25
776.509	1115.25
797.977	1258.25
819.355	1188.25
840.644	1062.25
861.844	886.25
882.955	768.25
903.979	737.25
924.916	718.25
945.766	706.25
966.529	688.25
987.208	671.25
1007.801	690.25
1028.309	729.25
1048.734	765.25
1069.075	769.25
1089.333	750.25
1109.509	688.25
1129.602	625.25
1149.614	643.25
1169.545	678.25
1189.395	667.25
1209.165	671.25
1228.856	687.25
1248.467	640.25
1268	568.25
1287.455	537.25
1306.832	555.25
1326.132	552.25
1345.354	534.25
1364.501	533.25
1383.572	522.25
1402.567	475.25
1421.487	467.25
1440.333	485.25
1459.104	493.25
1477.802	481.25
1496.426	499.25
1514.978	540.25
1533.457	506.25
1551.864	470.25
1570.199	452.25
1588.464	447.25
1606.657	425.25
1624.78	432.25
1642.834	424.25
1660.817	446.25
1678.732	434.25
1696.577	434.25
1714.355	427.25
1732.064	386.25
1749.705	355.25
1767.28	333.25
1784.787	334.25
1802.228	344.25
1819.603	314.25
1836.913	299.25
1854.156	293.25
1871.335	295.25
1888.449	300.25
1905.499	295.25
1922.485	305.25
1939.408	299.25
1956.267	297.25
1973.063	256.25
1989.797	229.25
2006.469	233.25
2023.078	230.25
2039.627	217.25
2056.114	212.25
2072.54	216.25
2088.906	225.25
2105.211	215.25
2121.457	196.25
2137.643	192.25
2153.77	180.25
2169.838	162.25
2185.848	151.25
2201.799	145.25
2217.693	142.25
2233.529	143.25
2249.307	132.25
2265.029	128.25
2280.694	112.25
2296.302	111.25
2311.854	128.25
2327.351	108.25
2342.792	92.25
2358.178	81.25
2373.508	138.25
2388.785	81.25
2404.007	81.25
2419.174	69.25
2434.289	67.25
2449.349	54.25
2464.356	46.25
2479.311	49.25
2494.213	48.25
2509.062	53.25
2523.859	50.25
2538.605	50.25
2553.299	41.25
2567.941	40.25
2582.533	40.25
2597.073	32.25
2611.564	33.25
2626.004	19.25
2640.394	17.25
2654.734	7.25
2669.025	7.25
2683.266	3.25
2697.458	-2.75
2711.602	-9.75
2725.697	-18.75
2739.744	-6.75
2753.743	-10.75
2767.695	0.25
2781.598	-17.75
2795.455	-19.75
2809.264	-20.75
2823.026	-15.75
2836.742	-15.75
2850.412	-22.75
2864.035	-26.75
2877.613	-31.75
2891.145	-34.75
2904.631	-39.75
2918.073	-42.75
2931.469	-45.75
2944.821	-49.75
2958.128	-47.75
2971.39	-59.75
2984.609	-59.75
2997.784	-55.75
3010.915	-61.75
3024.002	-64.75
3037.046	-71.75
3050.048	-69.75
3063.006	-80.75
3075.922	-73.75
3088.795	-74.75
3101.627	-72.75
3114.416	-65.75
3127.163	-76.75
3139.869	-74.75
3152.533	-76.75
3165.157	-83.75
3177.739	-80.75
3190.28	-83.75
3202.781	-86.75
3215.241	-86.75
3227.661	-89.75
3240.041	-87.75
3252.382	-89.75
3264.682	-92.75
3276.943	-92.75
3289.165	-90.75
3301.348	-99.75
3313.492	-97.75
3325.597	-99.75
3337.663	-102.75
3349.691	-105.75
3361.681	-100.75
3373.633	-105.75
3385.547	-97.75
3397.424	-96.75
3409.263	-100.75
3421.065	-101.75
3432.829	-96.75
3444.557	-101.75
3456.247	-104.75
3467.902	-107.75
3479.519	-98.75
3491.101	-105.75
3502.646	-106.75
3514.155	-108.75
3525.629	-109.75
3537.067	-111.75
3548.469	-104.75
3559.837	-103.75
3571.169	-103.75
3582.466	-111.75
3593.728	-106.75
3604.956	-106.75
3616.149	-108.75
3627.307	-110.75
3638.432	-117.75
3649.523	-117.75
3660.579	-115.75
3671.602	-109.75
3682.591	-114.75
3693.547	-111.75
3704.47	-121.75
3715.359	-117.75
3726.216	-113.75
3737.039	-117.75
3747.83	-116.75
3758.589	-115.75
3769.315	-118.75
3780.008	-122.75
3790.67	-116.75
3801.299	-114.75
3811.897	-118.75
3822.463	-116.75
3832.998	-116.75
3843.501	-113.75
3853.973	-113.75
3864.414	-114.75
3874.823	-60.75
3885.202	119.25
3895.55	-86.75
3905.868	-110.75
3916.155	-113.75
3926.411	-114.75
3936.638	-124.75
3946.834	-115.75
3957	-113.75
3967.137	-110.75
3977.244	-119.75
3987.321	-114.75
3997.369	-118.75
4007.388	-114.75
4017.377	-116.75
4027.338	-112.75
4037.269	-114.75
4047.172	-117.75
4057.046	-111.75
4066.891	-120.75
4076.708	-115.75
4086.497	-116.75
4096.257	-119.75
4105.989	80.25
4115.694	54.25
4125.37	-117.75
4135.019	-120.75
4142.237	-125.75