Folder: Water/Data/Raman/2017-08-29 - Alluminum 2/Aug 29 2017 - Aluminum 2 (part 14)

File: water 5_RamanShift_1.txt
Data from water 5_RamanShift_1.txt Node

Date: Tue Aug 29 12:49:07 IDT 2017
User: aro
Spectrometer: QEPB0276
Trigger mode: 0
Integration Time (sec): 3.000000E1
Scans to average: 1
Electric dark correction enabled: true
Nonlinearity correction enabled: false
Boxcar width: 0
XAxis mode: Raman Shifts
Number of Pixels in Spectrum: 1044
>>>>>Begin Spectral Data<<<<<
160.701	38.88
184.826	443.88
208.845	1929.88
232.758	2065.88
256.565	2244.88
280.267	2436.88
303.865	2600.88
327.359	2755.88
350.751	2881.88
374.04	3183.88
397.228	3239.88
420.315	5036.88
443.302	3324.88
466.189	3021.88
488.978	2900.88
511.668	2132.88
534.261	1478.88
556.756	1294.88
579.155	1258.88
601.459	1211.88
623.667	1132.88
645.781	1625.88
667.8	1087.88
689.726	961.88
711.56	918.88
733.301	953.88
754.951	1151.88
776.509	1061.88
797.977	1194.88
819.355	1120.88
840.644	1045.88
861.844	905.88
882.955	824.88
903.979	818.88
924.916	791.88
945.766	769.88
966.529	751.88
987.208	744.88
1007.801	753.88
1028.309	808.88
1048.734	840.88
1069.075	832.88
1089.333	801.88
1109.509	786.88
1129.602	709.88
1149.614	723.88
1169.545	753.88
1189.395	744.88
1209.165	757.88
1228.856	771.88
1248.467	745.88
1268	682.88
1287.455	650.88
1306.832	659.88
1326.132	656.88
1345.354	627.88
1364.501	619.88
1383.572	605.88
1402.567	588.88
1421.487	566.88
1440.333	577.88
1459.104	592.88
1477.802	572.88
1496.426	592.88
1514.978	626.88
1533.457	606.88
1551.864	578.88
1570.199	552.88
1588.464	538.88
1606.657	525.88
1624.78	499.88
1642.834	503.88
1660.817	524.88
1678.732	516.88
1696.577	512.88
1714.355	509.88
1732.064	482.88
1749.705	437.88
1767.28	414.88
1784.787	407.88
1802.228	422.88
1819.603	391.88
1836.913	367.88
1854.156	372.88
1871.335	377.88
1888.449	374.88
1905.499	369.88
1922.485	391.88
1939.408	394.88
1956.267	379.88
1973.063	342.88
1989.797	312.88
2006.469	309.88
2023.078	293.88
2039.627	283.88
2056.114	274.88
2072.54	291.88
2088.906	306.88
2105.211	288.88
2121.457	268.88
2137.643	261.88
2153.77	257.88
2169.838	245.88
2185.848	234.88
2201.799	234.88
2217.693	218.88
2233.529	220.88
2249.307	209.88
2265.029	197.88
2280.694	191.88
2296.302	181.88
2311.854	174.88
2327.351	194.88
2342.792	156.88
2358.178	161.88
2373.508	168.88
2388.785	158.88
2404.007	152.88
2419.174	152.88
2434.289	144.88
2449.349	138.88
2464.356	123.88
2479.311	125.88
2494.213	125.88
2509.062	122.88
2523.859	115.88
2538.605	118.88
2553.299	114.88
2567.941	114.88
2582.533	113.88
2597.073	106.88
2611.564	103.88
2626.004	83.88
2640.394	87.88
2654.734	82.88
2669.025	68.88
2683.266	76.88
2697.458	56.88
2711.602	49.88
2725.697	43.88
2739.744	47.88
2753.743	48.88
2767.695	57.88
2781.598	35.88
2795.455	43.88
2809.264	38.88
2823.026	47.88
2836.742	39.88
2850.412	25.88
2864.035	34.88
2877.613	18.88
2891.145	20.88
2904.631	4.88
2918.073	6.88
2931.469	0.88
2944.821	0.88
2958.128	-5.12
2971.39	-7.12
2984.609	-11.12
2997.784	-10.12
3010.915	-15.12
3024.002	-25.12
3037.046	-20.12
3050.048	-28.12
3063.006	-31.12
3075.922	-31.12
3088.795	-34.12
3101.627	-26.12
3114.416	-30.12
3127.163	-35.12
3139.869	-35.12
3152.533	-37.12
3165.157	-41.12
3177.739	-43.12
3190.28	-44.12
3202.781	-47.12
3215.241	-54.12
3227.661	2.88
3240.041	-54.12
3252.382	-57.12
3264.682	-52.12
3276.943	-58.12
3289.165	-53.12
3301.348	-66.12
3313.492	-59.12
3325.597	-69.12
3337.663	-69.12
3349.691	-66.12
3361.681	-63.12
3373.633	-67.12
3385.547	-69.12
3397.424	-63.12
3409.263	-68.12
3421.065	-71.12
3432.829	-72.12
3444.557	-73.12
3456.247	-75.12
3467.902	-77.12
3479.519	-72.12
3491.101	-72.12
3502.646	-76.12
3514.155	-65.12
3525.629	-71.12
3537.067	-77.12
3548.469	-75.12
3559.837	-71.12
3571.169	-77.12
3582.466	-73.12
3593.728	-70.12
3604.956	-79.12
3616.149	-86.12
3627.307	-82.12
3638.432	-82.12
3649.523	-85.12
3660.579	-81.12
3671.602	-84.12
3682.591	-83.12
3693.547	-81.12
3704.47	-88.12
3715.359	-83.12
3726.216	-87.12
3737.039	-90.12
3747.83	-80.12
3758.589	-80.12
3769.315	-87.12
3780.008	-91.12
3790.67	-87.12
3801.299	-85.12
3811.897	-90.12
3822.463	-84.12
3832.998	-80.12
3843.501	-82.12
3853.973	-83.12
3864.414	-88.12
3874.823	-49.12
3885.202	68.88
3895.55	-68.12
3905.868	-89.12
3916.155	-90.12
3926.411	-88.12
3936.638	-89.12
3946.834	-84.12
3957	-82.12
3967.137	-82.12
3977.244	-86.12
3987.321	-84.12
3997.369	-80.12
4007.388	-75.12
4017.377	-80.12
4027.338	-80.12
4037.269	-82.12
4047.172	-84.12
4057.046	-81.12
4066.891	-85.12
4076.708	-83.12
4086.497	-86.12
4096.257	-86.12
4105.989	56.88
4115.694	38.88
4125.37	-89.12
4135.019	-86.12
4142.237	-92.12

File: water 5_RamanShift_2.txt
Data from water 5_RamanShift_2.txt Node

Date: Tue Aug 29 12:49:37 IDT 2017
User: aro
Spectrometer: QEPB0276
Trigger mode: 0
Integration Time (sec): 3.000000E1
Scans to average: 1
Electric dark correction enabled: true
Nonlinearity correction enabled: false
Boxcar width: 0
XAxis mode: Raman Shifts
Number of Pixels in Spectrum: 1044
>>>>>Begin Spectral Data<<<<<
160.701	38.38
184.826	444.38
208.845	1907.38
232.758	2048.38
256.565	2246.38
280.267	2411.38
303.865	2633.38
327.359	2736.38
350.751	2894.38
374.04	3176.38
397.228	3228.38
420.315	5042.38
443.302	3308.38
466.189	3007.38
488.978	2867.38
511.668	2137.38
534.261	1480.38
556.756	1284.38
579.155	1242.38
601.459	1213.38
623.667	1145.38
645.781	1608.38
667.8	1084.38
689.726	960.38
711.56	919.38
733.301	955.38
754.951	1150.38
776.509	1065.38
797.977	1159.38
819.355	1127.38
840.644	1024.38
861.844	911.38
882.955	835.38
903.979	801.38
924.916	788.38
945.766	789.38
966.529	764.38
987.208	729.38
1007.801	755.38
1028.309	812.38
1048.734	827.38
1069.075	828.38
1089.333	814.38
1109.509	772.38
1129.602	714.38
1149.614	728.38
1169.545	751.38
1189.395	742.38
1209.165	758.38
1228.856	752.38
1248.467	722.38
1268	675.38
1287.455	657.38
1306.832	678.38
1326.132	657.38
1345.354	630.38
1364.501	617.38
1383.572	618.38
1402.567	582.38
1421.487	566.38
1440.333	578.38
1459.104	593.38
1477.802	576.38
1496.426	582.38
1514.978	627.38
1533.457	600.38
1551.864	585.38
1570.199	555.38
1588.464	548.38
1606.657	522.38
1624.78	506.38
1642.834	524.38
1660.817	523.38
1678.732	517.38
1696.577	517.38
1714.355	515.38
1732.064	490.38
1749.705	444.38
1767.28	407.38
1784.787	408.38
1802.228	419.38
1819.603	404.38
1836.913	381.38
1854.156	382.38
1871.335	384.38
1888.449	377.38
1905.499	368.38
1922.485	384.38
1939.408	386.38
1956.267	372.38
1973.063	340.38
1989.797	314.38
2006.469	316.38
2023.078	288.38
2039.627	281.38
2056.114	290.38
2072.54	285.38
2088.906	300.38
2105.211	288.38
2121.457	278.38
2137.643	264.38
2153.77	249.38
2169.838	237.38
2185.848	227.38
2201.799	217.38
2217.693	220.38
2233.529	227.38
2249.307	211.38
2265.029	208.38
2280.694	188.38
2296.302	177.38
2311.854	174.38
2327.351	180.38
2342.792	158.38
2358.178	150.38
2373.508	158.38
2388.785	153.38
2404.007	147.38
2419.174	152.38
2434.289	142.38
2449.349	132.38
2464.356	124.38
2479.311	126.38
2494.213	119.38
2509.062	124.38
2523.859	122.38
2538.605	120.38
2553.299	116.38
2567.941	121.38
2582.533	113.38
2597.073	103.38
2611.564	107.38
2626.004	95.38
2640.394	95.38
2654.734	75.38
2669.025	69.38
2683.266	71.38
2697.458	58.38
2711.602	55.38
2725.697	41.38
2739.744	46.38
2753.743	45.38
2767.695	51.38
2781.598	51.38
2795.455	35.38
2809.264	30.38
2823.026	40.38
2836.742	47.38
2850.412	30.38
2864.035	33.38
2877.613	26.38
2891.145	21.38
2904.631	16.38
2918.073	6.38
2931.469	8.38
2944.821	2.38
2958.128	-1.62
2971.39	-9.62
2984.609	-6.62
2997.784	-7.62
3010.915	-21.62
3024.002	-18.62
3037.046	-25.62
3050.048	-24.62
3063.006	-24.62
3075.922	-30.62
3088.795	-33.62
3101.627	-23.62
3114.416	-27.62
3127.163	-28.62
3139.869	-27.62
3152.533	-35.62
3165.157	-35.62
3177.739	-38.62
3190.28	-41.62
3202.781	-52.62
3215.241	-52.62
3227.661	-58.62
3240.041	-55.62
3252.382	-57.62
3264.682	-59.62
3276.943	-56.62
3289.165	-59.62
3301.348	-60.62
3313.492	-62.62
3325.597	-68.62
3337.663	-70.62
3349.691	-67.62
3361.681	-66.62
3373.633	-62.62
3385.547	-67.62
3397.424	-64.62
3409.263	-69.62
3421.065	-69.62
3432.829	-70.62
3444.557	-67.62
3456.247	-69.62
3467.902	-78.62
3479.519	-62.62
3491.101	-69.62
3502.646	-71.62
3514.155	-69.62
3525.629	-74.62
3537.067	-72.62
3548.469	-78.62
3559.837	-75.62
3571.169	-74.62
3582.466	-71.62
3593.728	-70.62
3604.956	-76.62
3616.149	-79.62
3627.307	-84.62
3638.432	-83.62
3649.523	-84.62
3660.579	-86.62
3671.602	-82.62
3682.591	-78.62
3693.547	-80.62
3704.47	-84.62
3715.359	-80.62
3726.216	-86.62
3737.039	-86.62
3747.83	-85.62
3758.589	-83.62
3769.315	-82.62
3780.008	-91.62
3790.67	-84.62
3801.299	-87.62
3811.897	-86.62
3822.463	-84.62
3832.998	-78.62
3843.501	-80.62
3853.973	-84.62
3864.414	-79.62
3874.823	-48.62
3885.202	76.38
3895.55	-63.62
3905.868	-88.62
3916.155	-86.62
3926.411	-85.62
3936.638	-92.62
3946.834	-86.62
3957	-84.62
3967.137	-83.62
3977.244	-85.62
3987.321	-81.62
3997.369	-87.62
4007.388	-80.62
4017.377	-77.62
4027.338	-78.62
4037.269	-83.62
4047.172	-82.62
4057.046	-75.62
4066.891	-83.62
4076.708	-83.62
4086.497	-87.62
4096.257	-85.62
4105.989	57.38
4115.694	35.38
4125.37	-86.62
4135.019	-86.62
4142.237	-89.62

File: water 5_RamanShift_3.txt
Data from water 5_RamanShift_3.txt Node

Date: Tue Aug 29 12:50:07 IDT 2017
User: aro
Spectrometer: QEPB0276
Trigger mode: 0
Integration Time (sec): 3.000000E1
Scans to average: 1
Electric dark correction enabled: true
Nonlinearity correction enabled: false
Boxcar width: 0
XAxis mode: Raman Shifts
Number of Pixels in Spectrum: 1044
>>>>>Begin Spectral Data<<<<<
160.701	34.5
184.826	428.5
208.845	1918.5
232.758	2060.5
256.565	2222.5
280.267	2426.5
303.865	2610.5
327.359	2726.5
350.751	2875.5
374.04	3172.5
397.228	3235.5
420.315	5018.5
443.302	3316.5
466.189	2997.5
488.978	2895.5
511.668	2135.5
534.261	1468.5
556.756	1271.5
579.155	1246.5
601.459	1200.5
623.667	1125.5
645.781	1594.5
667.8	1064.5
689.726	955.5
711.56	914.5
733.301	946.5
754.951	1141.5
776.509	1059.5
797.977	1169.5
819.355	1121.5
840.644	1036.5
861.844	904.5
882.955	815.5
903.979	794.5
924.916	779.5
945.766	773.5
966.529	769.5
987.208	737.5
1007.801	757.5
1028.309	797.5
1048.734	819.5
1069.075	818.5
1089.333	813.5
1109.509	769.5
1129.602	709.5
1149.614	711.5
1169.545	747.5
1189.395	741.5
1209.165	745.5
1228.856	771.5
1248.467	729.5
1268	670.5
1287.455	639.5
1306.832	651.5
1326.132	652.5
1345.354	631.5
1364.501	628.5
1383.572	615.5
1402.567	578.5
1421.487	574.5
1440.333	573.5
1459.104	596.5
1477.802	580.5
1496.426	579.5
1514.978	631.5
1533.457	597.5
1551.864	584.5
1570.199	553.5
1588.464	535.5
1606.657	526.5
1624.78	503.5
1642.834	504.5
1660.817	524.5
1678.732	515.5
1696.577	511.5
1714.355	509.5
1732.064	475.5
1749.705	432.5
1767.28	406.5
1784.787	400.5
1802.228	421.5
1819.603	400.5
1836.913	375.5
1854.156	368.5
1871.335	380.5
1888.449	372.5
1905.499	367.5
1922.485	385.5
1939.408	399.5
1956.267	384.5
1973.063	337.5
1989.797	313.5
2006.469	302.5
2023.078	305.5
2039.627	290.5
2056.114	274.5
2072.54	291.5
2088.906	303.5
2105.211	296.5
2121.457	270.5
2137.643	254.5
2153.77	243.5
2169.838	233.5
2185.848	225.5
2201.799	219.5
2217.693	209.5
2233.529	214.5
2249.307	207.5
2265.029	199.5
2280.694	184.5
2296.302	179.5
2311.854	176.5
2327.351	187.5
2342.792	162.5
2358.178	158.5
2373.508	158.5
2388.785	162.5
2404.007	152.5
2419.174	160.5
2434.289	151.5
2449.349	140.5
2464.356	122.5
2479.311	117.5
2494.213	116.5
2509.062	118.5
2523.859	117.5
2538.605	118.5
2553.299	119.5
2567.941	110.5
2582.533	107.5
2597.073	103.5
2611.564	102.5
2626.004	86.5
2640.394	87.5
2654.734	75.5
2669.025	66.5
2683.266	62.5
2697.458	55.5
2711.602	48.5
2725.697	40.5
2739.744	45.5
2753.743	42.5
2767.695	50.5
2781.598	40.5
2795.455	39.5
2809.264	29.5
2823.026	41.5
2836.742	41.5
2850.412	27.5
2864.035	29.5
2877.613	25.5
2891.145	23.5
2904.631	16.5
2918.073	6.5
2931.469	7.5
2944.821	-7.5
2958.128	-6.5
2971.39	-8.5
2984.609	-11.5
2997.784	-3.5
3010.915	-10.5
3024.002	-16.5
3037.046	-21.5
3050.048	-29.5
3063.006	-26.5
3075.922	-32.5
3088.795	-32.5
3101.627	-30.5
3114.416	-33.5
3127.163	-30.5
3139.869	-28.5
3152.533	-37.5
3165.157	-38.5
3177.739	-43.5
3190.28	-46.5
3202.781	-48.5
3215.241	-55.5
3227.661	-52.5
3240.041	-57.5
3252.382	-55.5
3264.682	-54.5
3276.943	-59.5
3289.165	-60.5
3301.348	-66.5
3313.492	-64.5
3325.597	-72.5
3337.663	-72.5
3349.691	-67.5
3361.681	-66.5
3373.633	-67.5
3385.547	-69.5
3397.424	-65.5
3409.263	-65.5
3421.065	-67.5
3432.829	-68.5
3444.557	-63.5
3456.247	-75.5
3467.902	-79.5
3479.519	-70.5
3491.101	-74.5
3502.646	-73.5
3514.155	-74.5
3525.629	-81.5
3537.067	-78.5
3548.469	-80.5
3559.837	-73.5
3571.169	-78.5
3582.466	-75.5
3593.728	-77.5
3604.956	-77.5
3616.149	-86.5
3627.307	-84.5
3638.432	-80.5
3649.523	-85.5
3660.579	-84.5
3671.602	-78.5
3682.591	-81.5
3693.547	-80.5
3704.47	-81.5
3715.359	-83.5
3726.216	-85.5
3737.039	-87.5
3747.83	-88.5
3758.589	-86.5
3769.315	-84.5
3780.008	-89.5
3790.67	-81.5
3801.299	-89.5
3811.897	-86.5
3822.463	-81.5
3832.998	-82.5
3843.501	-81.5
3853.973	-84.5
3864.414	-81.5
3874.823	-49.5
3885.202	67.5
3895.55	-69.5
3905.868	-82.5
3916.155	-87.5
3926.411	-84.5
3936.638	-90.5
3946.834	-89.5
3957	-88.5
3967.137	-84.5
3977.244	-87.5
3987.321	-84.5
3997.369	-91.5
4007.388	-79.5
4017.377	-78.5
4027.338	-82.5
4037.269	-87.5
4047.172	-81.5
4057.046	-84.5
4066.891	-86.5
4076.708	-83.5
4086.497	-90.5
4096.257	-89.5
4105.989	58.5
4115.694	40.5
4125.37	-85.5
4135.019	-83.5
4142.237	-91.5