Folder: Water/Data/Raman/Archive/Jan-April 2017/Learning Glass 18 April 2017

File: Very high water drop 5s_RamanShift_1.txt
Data from Very high water drop 5s_RamanShift_1.txt Node

Date: Tue Apr 18 12:17:36 IDT 2017
User: aro
Spectrometer: QEPB0276
Trigger mode: 0
Integration Time (sec): 5.000000E0
Scans to average: 1
Electric dark correction enabled: true
Nonlinearity correction enabled: false
Boxcar width: 0
XAxis mode: Raman Shifts
Number of Pixels in Spectrum: 1044
>>>>>Begin Spectral Data<<<<<
160.701	-3
184.826	181
208.845	927
232.758	1023
256.565	1087
280.267	1123
303.865	1167
327.359	1183
350.751	1189
374.04	1208
397.228	1230
420.315	1383
443.302	1205
466.189	1164
488.978	1133
511.668	1048
534.261	963
556.756	940
579.155	918
601.459	912
623.667	875
645.781	894
667.8	824
689.726	803
711.56	780
733.301	755
754.951	760
776.509	751
797.977	727
819.355	723
840.644	691
861.844	686
882.955	657
903.979	633
924.916	621
945.766	634
966.529	606
987.208	574
1007.801	588
1028.309	602
1048.734	590
1069.075	581
1089.333	594
1109.509	598
1129.602	573
1149.614	588
1169.545	600
1189.395	609
1209.165	618
1228.856	638
1248.467	655
1268	622
1287.455	650
1306.832	733
1326.132	799
1345.354	849
1364.501	866
1383.572	850
1402.567	831
1421.487	786
1440.333	792
1459.104	771
1477.802	714
1496.426	690
1514.978	664
1533.457	641
1551.864	594
1570.199	570
1588.464	581
1606.657	543
1624.78	524
1642.834	510
1660.817	523
1678.732	503
1696.577	473
1714.355	438
1732.064	422
1749.705	390
1767.28	369
1784.787	376
1802.228	365
1819.603	330
1836.913	323
1854.156	329
1871.335	343
1888.449	335
1905.499	335
1922.485	315
1939.408	307
1956.267	273
1973.063	234
1989.797	211
2006.469	192
2023.078	182
2039.627	160
2056.114	155
2072.54	159
2088.906	150
2105.211	136
2121.457	120
2137.643	115
2153.77	107
2169.838	112
2185.848	101
2201.799	90
2217.693	87
2233.529	90
2249.307	84
2265.029	79
2280.694	66
2296.302	67
2311.854	64
2327.351	65
2342.792	65
2358.178	58
2373.508	56
2388.785	59
2404.007	53
2419.174	49
2434.289	47
2449.349	49
2464.356	48
2479.311	43
2494.213	43
2509.062	43
2523.859	34
2538.605	34
2553.299	33
2567.941	35
2582.533	37
2597.073	29
2611.564	21
2626.004	28
2640.394	20
2654.734	21
2669.025	17
2683.266	20
2697.458	13
2711.602	14
2725.697	12
2739.744	12
2753.743	16
2767.695	9
2781.598	9
2795.455	6
2809.264	4
2823.026	8
2836.742	7
2850.412	4
2864.035	4
2877.613	13
2891.145	4
2904.631	-1
2918.073	0
2931.469	3
2944.821	3
2958.128	-3
2971.39	-5
2984.609	-4
2997.784	-5
3010.915	3
3024.002	-3
3037.046	-3
3050.048	-1
3063.006	-4
3075.922	-1
3088.795	1
3101.627	5
3114.416	-2
3127.163	0
3139.869	4
3152.533	8
3165.157	6
3177.739	6
3190.28	3
3202.781	9
3215.241	11
3227.661	10
3240.041	16
3252.382	23
3264.682	22
3276.943	14
3289.165	17
3301.348	19
3313.492	16
3325.597	9
3337.663	10
3349.691	8
3361.681	7
3373.633	6
3385.547	2
3397.424	3
3409.263	2
3421.065	-5
3432.829	-1
3444.557	-3
3456.247	-8
3467.902	-13
3479.519	-13
3491.101	-8
3502.646	-6
3514.155	-6
3525.629	-15
3537.067	-17
3548.469	-13
3559.837	-12
3571.169	-14
3582.466	-15
3593.728	-16
3604.956	-18
3616.149	-20
3627.307	-16
3638.432	-21
3649.523	-19
3660.579	-18
3671.602	-21
3682.591	-24
3693.547	-21
3704.47	-18
3715.359	-20
3726.216	-18
3737.039	-21
3747.83	-22
3758.589	-22
3769.315	-24
3780.008	-22
3790.67	-21
3801.299	-19
3811.897	-22
3822.463	-25
3832.998	-24
3843.501	-22
3853.973	-22
3864.414	-23
3874.823	-21
3885.202	-13
3895.55	-22
3905.868	-24
3916.155	-23
3926.411	-23
3936.638	-20
3946.834	-21
3957	-27
3967.137	-25
3977.244	-24
3987.321	-22
3997.369	-20
4007.388	-25
4017.377	-20
4027.338	-24
4037.269	-24
4047.172	-26
4057.046	-21
4066.891	-18
4076.708	-24
4086.497	-26
4096.257	-19
4105.989	-5
4115.694	-7
4125.37	-20
4135.019	-22
4142.237	-21