Folder: Water/Data/Raman/2017-05-all

Note: Data/Raman/2017-05-all/Bacteria vs plastic background - dipping [2s average 3, LI=1]_RamanShift_00001.txt
Data from Bacteria vs plastic background - dipping [2s average 3, LI=1]_RamanShift_00001.txt Node
Date: Mon May 01 14:19:26 IDT 2017
User: aro
Spectrometer: QEPB0276
Trigger mode: 0
Integration Time (sec): 2.000000E0
Scans to average: 3
Electric dark correction enabled: true
Nonlinearity correction enabled: false
Boxcar width: 0
XAxis mode: Raman Shifts
Number of Pixels in Spectrum: 1044
>>>>>Begin Spectral Data<<<<<
160.701	-5.71
166.742	-2.38
172.777	13.62
178.805	54.62
184.826	155.29
190.841	332.96
196.849	533.96
202.85	669.96
208.845	700.96
214.833	669.63
220.815	640.96
226.789	619.96
232.758	604.62
238.719	577.62
244.674	563.96
250.623	540.29
256.565	507.96
262.5	478.62
268.429	446.29
274.351	427.29
280.267	408.96
286.176	387.29
292.079	379.96
297.975	360.63
303.865	347.62
309.748	334.96
315.625	333.63
321.495	323.96
327.359	316.29
333.217	310.29
339.068	308.29
344.912	308.29
350.751	310.63
356.583	303.62
362.408	296.29
368.227	306.29
374.04	302.29
379.847	300.63
385.647	300.29
391.44	306.29
397.228	303.96
403.009	303.63
408.784	304.63
414.553	302.29
420.315	308.96
426.071	308.62
431.821	310.29
437.565	308.62
443.302	305.63
449.033	305.62
454.758	302.96
460.477	299.29
466.189	299.96
471.896	303.96
477.596	297.29
483.29	292.62
488.978	296.29
494.66	295.62
500.335	289.96
506.005	295.29
511.668	283.62
517.325	285.96
522.977	280.63
528.622	277.96
534.261	278.29
539.894	272.29
545.521	272.29
551.141	266.29
556.756	270.29
562.365	261.96
567.968	264.63
573.565	265.62
579.155	256.29
584.74	254.29
590.319	252.29
595.892	254.62
601.459	246.63
607.02	245.29
612.575	241.62
618.124	239.29
623.667	229.96
629.204	229.29
634.735	222.96
640.261	227.29
645.781	231.62
651.294	224.62
656.802	229.62
662.304	233.29
667.8	225.29
673.29	226.62
678.775	219.62
684.254	221.96
689.726	217.96
695.193	217.29
700.655	215.96
706.11	211.62
711.56	214.29
717.004	212.96
722.442	209.63
727.874	211.62
733.301	203.29
738.722	194.96
744.137	193.96
749.547	192.29
754.951	193.29
760.349	190.62
765.741	192.29
771.128	184.29
776.509	194.62
781.885	190.63
787.254	184.29
792.618	182.96
797.977	176.96
803.33	176.62
808.677	174.62
814.019	174.29
819.355	172.29
824.686	168.96
830.011	172.62
835.33	170.96
840.644	163.96
845.952	162.29
851.255	160.96
856.552	162.29
861.844	158.96
867.13	164.62
872.41	153.29
877.686	156.96
882.955	156.62
888.219	153.29
893.478	151.63
898.731	145.29
903.979	143.96
909.221	137.62
914.458	138.63
919.69	134.29
924.916	134.29
930.136	132.96
935.351	132.96
940.561	131.62
945.766	131.63
950.965	130.29
956.158	124.62
961.347	127.63
966.529	122.29
971.707	122.96
976.879	120.29
982.046	111.63
987.208	111.62
992.364	105.62
997.515	97.29
1002.66	72.96
1007.801	56.62
1012.936	71.62
1018.066	96.96
1023.19	108.96
1028.309	110.63
1033.423	101.29
1038.532	98.96
1043.636	103.96
1048.734	106.29
1053.827	115.62
1058.9

Note: Data/Raman/2017-05-all/Bacteria vs water background - dipping [2s average 3, LI=1]_RamanShift_00001.txt
Data from Bacteria vs water background - dipping [2s average 3, LI=1]_RamanShift_00001.txt Node
Date: Mon May 01 14:26:08 IDT 2017
User: aro
Spectrometer: QEPB0276
Trigger mode: 0
Integration Time (sec): 2.000000E0
Scans to average: 3
Electric dark correction enabled: true
Nonlinearity correction enabled: false
Boxcar width: 0
XAxis mode: Raman Shifts
Number of Pixels in Spectrum: 1044
>>>>>Begin Spectral Data<<<<<
160.701	-5.96
166.742	1.37
172.777	7.37
178.805	33.71
184.826	94.71
190.841	204.04
196.849	327.38
202.85	415.71
208.845	429.04
214.833	415.38
220.815	402.04
226.789	386.37
232.758	376.71
238.719	363.71
244.674	345.38
250.623	320.37
256.565	306.71
262.5	284.04
268.429	276.38
274.351	255.04
280.267	243.04
286.176	233.71
292.079	229.04
297.975	215.04
303.865	205.04
309.748	204.37
315.625	196.37
321.495	187.38
327.359	182.37
333.217	185.71
339.068	175.38
344.912	180.38
350.751	180.71
356.583	176.38
362.408	178.38
368.227	179.04
374.04	172.37
379.847	175.38
385.647	172.38
391.44	173.37
397.228	175.71
403.009	183.37
408.784	180.04
414.553	172.71
420.315	155.04
426.071	159.71
431.821	169.37
437.565	176.71
443.302	178.04
449.033	179.04
454.758	176.04
460.477	179.38
466.189	177.38
471.896	175.71
477.596	173.04
483.29	175.71
488.978	171.04
494.66	170.71
500.335	177.37
506.005	175.04
511.668	178.71
517.325	174.04
522.977	174.04
528.622	170.71
534.261	174.71
539.894	168.37
545.521	167.37
551.141	172.04
556.756	167.71
562.365	170.71
567.968	163.71
573.565	165.37
579.155	161.04
584.74	159.37
590.319	166.04
595.892	158.37
601.459	158.37
607.02	152.71
612.575	156.38
618.124	156.38
623.667	155.04
629.204	157.38
634.735	148.37
640.261	141.71
645.781	141.04
651.294	135.71
656.802	137.37
662.304	145.04
667.8	142.71
673.29	144.71
678.775	138.38
684.254	138.37
689.726	141.37
695.193	137.71
700.655	140.04
706.11	139.04
711.56	133.71
717.004	132.37
722.442	132.38
727.874	127.71
733.301	133.04
738.722	126.71
744.137	125.04
749.547	126.37
754.951	121.37
760.349	121.04
765.741	117.04
771.128	124.37
776.509	124.38
781.885	122.04
787.254	126.38
792.618	116.04
797.977	125.04
803.33	123.37
808.677	115.37
814.019	117.04
819.355	114.04
824.686	109.38
830.011	106.37
835.33	108.04
840.644	110.04
845.952	105.71
851.255	111.04
856.552	104.04
861.844	105.38
867.13	109.71
872.41	101.37
877.686	103.04
882.955	101.04
888.219	100.38
893.478	95.37
898.731	94.04
903.979	89.71
909.221	91.71
914.458	92.37
919.69	84.71
924.916	85.71
930.136	91.38
935.351	87.04
940.561	88.71
945.766	87.71
950.965	87.37
956.158	90.38
961.347	85.04
966.529	82.71
971.707	83.71
976.879	78.71
982.046	80.71
987.208	79.71
992.364	79.71
997.515	84.04
1002.66	90.37
1007.801	94.71
1012.936	88.38
1018.066	83.71
1023.19	82.04
1028.309	76.38
1033.423	82.37
1038.532	85.37
1043.636	80.71
1048.734	80.37
1053.827	76.37
1058.915	74.71
1063.998	72.37
1069.

File: Water vs plastic background - dipping [2s average 3, LI=1]_RamanShift_00001.txt
Data from Water vs plastic background - dipping [2s average 3, LI=1]_RamanShift_00001.txt Node

Date: Mon May 01 14:23:08 IDT 2017
User: aro
Spectrometer: QEPB0276
Trigger mode: 0
Integration Time (sec): 2.000000E0
Scans to average: 3
Electric dark correction enabled: true
Nonlinearity correction enabled: false
Boxcar width: 0
XAxis mode: Raman Shifts
Number of Pixels in Spectrum: 1044
>>>>>Begin Spectral Data<<<<<
160.701	-1.58
184.826	44.75
208.845	196.75
232.758	170.08
256.565	143.75
280.267	112.08
303.865	98.08
327.359	84.75
350.751	81.08
374.04	82.75
397.228	83.42
420.315	92.08
443.302	86.08
466.189	86.42
488.978	80.75
511.668	76.75
534.261	78.42
556.756	69.08
579.155	65.75
601.459	63.75
623.667	57.42
645.781	65.08
667.8	65.08
689.726	56.08
711.56	56.08
733.301	51.42
754.951	48.75
776.509	47.75
797.977	36.75
819.355	40.75
840.644	41.42
861.844	37.75
882.955	38.42
903.979	36.42
924.916	30.75
945.766	30.75
966.529	28.08
987.208	20.42
1007.801	-28.25
1028.309	16.42
1048.734	14.75
1069.075	19.42
1089.333	20.08
1109.509	20.42
1129.602	21.75
1149.614	18.08
1169.545	18.08
1189.395	12.42
1209.165	13.08
1228.856	19.42
1248.467	19.42
1268	17.08
1287.455	19.08
1306.832	18.08
1326.132	19.08
1345.354	14.75
1364.501	14.42
1383.572	11.42
1402.567	14.42
1421.487	12.75
1440.333	12.75
1459.104	11.75
1477.802	16.42
1496.426	15.08
1514.978	13.08
1533.457	14.08
1551.864	14.08
1570.199	17.75
1588.464	19.08
1606.657	19.08
1624.78	31.08
1642.834	31.75
1660.817	30.75
1678.732	22.75
1696.577	15.08
1714.355	13.08
1732.064	9.75
1749.705	7.08
1767.28	0.42
1784.787	3.75
1802.228	3.42
1819.603	2.75
1836.913	-0.25
1854.156	0.42
1871.335	1.75
1888.449	-2.58
1905.499	-2.25
1922.485	0.75
1939.408	1.42
1956.267	1.08
1973.063	1.42
1989.797	-1.25
2006.469	1.75
2023.078	-1.58
2039.627	0.08
2056.114	5.08
2072.54	4.08
2088.906	2.75
2105.211	3.08
2121.457	3.08
2137.643	1.42
2153.77	2.75
2169.838	0.75
2185.848	2.42
2201.799	1.75
2217.693	3.42
2233.529	0.08
2249.307	0.08
2265.029	-0.58
2280.694	-2.25
2296.302	-2.58
2311.854	0.08
2327.351	-3.25
2342.792	0.75
2358.178	0.08
2373.508	-1.25
2388.785	-3.25
2404.007	-6.25
2419.174	-5.58
2434.289	-1.25
2449.349	-0.58
2464.356	0.42
2479.311	-1.58
2494.213	-5.25
2509.062	-7.25
2523.859	-6.25
2538.605	-4.92
2553.299	-2.92
2567.941	-0.92
2582.533	-3.25
2597.073	-4.58
2611.564	-3.92
2626.004	-3.25
2640.394	-5.25
2654.734	-5.58
2669.025	-2.25
2683.266	-3.58
2697.458	-1.92
2711.602	-2.58
2725.697	-3.58
2739.744	-3.92
2753.743	-2.92
2767.695	-3.58
2781.598	-3.92
2795.455	-2.58
2809.264	-1.92
2823.026	-1.92
2836.742	-0.58
2850.412	-1.25
2864.035	-3.25
2877.613	-1.58
2891.145	-3.92
2904.631	-0.92
2918.073	2.75
2931.469	2.42
2944.821	4.08
2958.128	5.75
2971.39	7.42
2984.609	5.75
2997.784	9.75
3010.915	11.42
3024.002	14.42
3037.046	13.75
3050.048	15.75
3063.006	16.08
3075.922	20.75
3088.795	26.08
3101.627	33.08
3114.416	35.08
3127.163	39.75
3139.869	47.75
3152.533	49.08
3165.157	51.08
3177.739	51.08
3190.28	53.42
3202.781	52.08
3215.241	53.75
3227.661	52.75
3240.041	52.08
3252.382	51.75
3264.682	50.42
3276.943	48.42
3289.165	41.75
3301.348	40.75
3313.492	43.75
3325.597	41.42
3337.663	42.42
3349.691	41.42
3361.681	38.75
3373.633	35.75
3385.547	35.08
3397.424	34.08
3409.263	31.42
3421.065	33.08
3432.829	29.08
3444.557	27.42
3456.247	25.42
3467.902	21.75
3479.519	18.75
3491.101	17.42
3502.646	15.42
3514.155	12.75
3525.629	8.42
3537.067	10.75
3548.469	4.75
3559.837	6.42
3571.169	4.75
3582.466	3.42
3593.728	4.08
3604.956	1.08
3616.149	-0.25
3627.307	-1.25
3638.432	-0.58
3649.523	-1.58
3660.579	-1.58
3671.602	-3.25
3682.591	-3.58
3693.547	-3.25
3704.47	-1.58
3715.359	-3.58
3726.216	-4.92
3737.039	-4.58
3747.83	-7.58
3758.589	-4.58
3769.315	-6.25
3780.008	-2.58
3790.67	-5.25
3801.299	-1.25
3811.897	-4.58
3822.463	-6.58
3832.998	-6.25
3843.501	-6.58
3853.973	-3.58
3864.414	-3.58
3874.823	-4.92
3885.202	-3.58
3895.55	-3.58
3905.868	-3.25
3916.155	-6.25
3926.411	-4.58
3936.638	-4.92
3946.834	-3.92
3957	-3.25
3967.137	-2.92
3977.244	-5.25
3987.321	-6.25
3997.369	-5.25
4007.388	-4.25
4017.377	-3.58
4027.338	-1.58
4037.269	-3.92
4047.172	-4.25
4057.046	-6.58
4066.891	-5.58
4076.708	-4.25
4086.497	-3.58
4096.257	-2.92
4105.989	-0.58
4115.694	-1.92
4125.37	-1.92
4135.019	-5.25
4142.237	-5.92