Folder: Water/Data/Raman/2017-11-7 - OceranOptics SERS

Note: Data/Raman/2017-11-7 - OceranOptics SERS/Just SERS_RamanShift_4.txt
Data from Just SERS_RamanShift_4.txt Node
Date: Tue Nov 07 10:57:17 IST 2017
User: aro
Spectrometer: QEPB0276
Trigger mode: 0
Integration Time (sec): 1.500000E1
Scans to average: 3
Electric dark correction enabled: true
Nonlinearity correction enabled: false
Boxcar width: 0
XAxis mode: Raman Shifts
Number of Pixels in Spectrum: 1044
>>>>>Begin Spectral Data<<<<<
160.701	-17.96
166.742	48.71
172.777	215.38
178.805	709.04
184.826	1982.04
190.841	4318.71
196.849	7289.04
202.85	9646.04
208.845	10742.04
214.833	11060.04
220.815	11389.04
226.789	11921.04
232.758	12606.04
238.719	13237.37
244.674	13877.71
250.623	14536.38
256.565	15126.71
262.5	15621.37
268.429	15872.04
274.351	15992.38
280.267	15975.71
286.176	15932.04
292.079	15832.38
297.975	15647.71
303.865	15358.71
309.748	14924.04
315.625	14451.04
321.495	14018.38
327.359	13653.04
333.217	13315.04
339.068	13038.04
344.912	12809.38
350.751	12624.04
356.583	12525.04
362.408	12443.04
368.227	12417.71
374.04	12428.71
379.847	12470.38
385.647	12572.38
391.44	12584.71
397.228	12545.37
403.009	12518.38
408.784	12467.37
414.553	12535.38
420.315	12657.04
426.071	12636.04
431.821	12477.04
437.565	12368.71
443.302	12315.38
449.033	12304.37
454.758	12298.04
460.477	12260.71
466.189	12253.04
471.896	12330.04
477.596	12313.37
483.29	12361.38
488.978	12409.38
494.66	12439.71
500.335	12412.38
506.005	12406.71
511.668	12362.71
517.325	12299.04
522.977	12244.04
528.622	12205.04
534.261	12228.38
539.894	12281.71
545.521	12300.71
551.141	12425.04
556.756	12428.71
562.365	12412.38
567.968	12392.37
573.565	12337.71
579.155	12339.04
584.74	12290.04
590.319	12327.04
595.892	12331.04
601.459	12382.38
607.02	12348.04
612.575	12347.04
618.124	12295.04
623.667	12257.71
629.204	12230.71
634.735	12255.04
640.261	12321.38
645.781	12397.04
651.294	12481.71
656.802	12624.04
662.304	12758.38
667.8	12752.04
673.29	12668.71
678.775	12515.04
684.254	12440.04
689.726	12407.38
695.193	12456.04
700.655	12450.04
706.11	12439.38
711.56	12469.38
717.004	12479.38
722.442	12462.38
727.874	12417.37
733.301	12405.38
738.722	12436.37
744.137	12462.37
749.547	12484.71
754.951	12557.04
760.349	12580.04
765.741	12658.71
771.128	12697.37
776.509	12742.04
781.885	12778.38
787.254	12835.04
792.618	12886.71
797.977	12924.71
803.33	12904.37
808.677	12922.38
814.019	12854.37
819.355	12801.38
824.686	12829.04
830.011	12881.37
835.33	12936.04
840.644	13038.38
845.952	13121.71
851.255	13277.38
856.552	13385.71
861.844	13445.71
867.13	13497.37
872.41	13486.71
877.686	13524.71
882.955	13587.71
888.219	13580.37
893.478	13517.37
898.731	13288.04
903.979	13074.04
909.221	12984.04
914.458	12946.71
919.69	13023.38
924.916	13111.04
930.136	13197.38
935.351	13282.04
940.561	13361.04
945.766	13430.71
950.965	13514.37
956.158	13625.04
961.347	13618.71
966.529	13641.04
971.707	13583.38
976.879	13556.38
982.046	13521.71
98

Note: Data/Raman/2017-11-7 - OceranOptics SERS/Just SERS_RamanShift_5.txt
Data from Just SERS_RamanShift_5.txt Node
Date: Tue Nov 07 10:58:02 IST 2017
User: aro
Spectrometer: QEPB0276
Trigger mode: 0
Integration Time (sec): 1.500000E1
Scans to average: 3
Electric dark correction enabled: true
Nonlinearity correction enabled: false
Boxcar width: 0
XAxis mode: Raman Shifts
Number of Pixels in Spectrum: 1044
>>>>>Begin Spectral Data<<<<<
160.701	-18.21
166.742	51.79
172.777	225.12
178.805	757.12
184.826	2108.46
190.841	4612.79
196.849	7801.79
202.85	10367.79
208.845	11523.12
214.833	11891.79
220.815	12224.12
226.789	12772.79
232.758	13456.79
238.719	14174.46
244.674	14799.46
250.623	15409.46
256.565	16005.13
262.5	16490.46
268.429	16803.79
274.351	16916.46
280.267	16936.12
286.176	16934.12
292.079	16853.12
297.975	16740.12
303.865	16422.79
309.748	16005.13
315.625	15584.12
321.495	15156.13
327.359	14831.79
333.217	14497.79
339.068	14251.12
344.912	14009.13
350.751	13845.79
356.583	13740.46
362.408	13684.12
368.227	13670.79
374.04	13704.46
379.847	13737.79
385.647	13835.46
391.44	13842.12
397.228	13835.79
403.009	13778.79
408.784	13767.46
414.553	13817.12
420.315	13964.79
426.071	13963.46
431.821	13824.46
437.565	13728.12
443.302	13680.46
449.033	13649.79
454.758	13622.12
460.477	13620.46
466.189	13648.79
471.896	13659.12
477.596	13679.12
483.29	13753.46
488.978	13756.13
494.66	13817.12
500.335	13811.79
506.005	13808.79
511.668	13723.46
517.325	13643.46
522.977	13614.12
528.622	13604.12
534.261	13594.79
539.894	13672.79
545.521	13714.79
551.141	13792.79
556.756	13825.46
562.365	13815.79
567.968	13801.79
573.565	13761.46
579.155	13741.46
584.74	13752.46
590.319	13736.46
595.892	13751.46
601.459	13789.46
607.02	13783.12
612.575	13777.79
618.124	13693.79
623.667	13645.79
629.204	13657.12
634.735	13697.12
640.261	13726.12
645.781	13811.12
651.294	13908.46
656.802	14034.79
662.304	14134.46
667.8	14169.12
673.29	14084.12
678.775	13946.79
684.254	13912.46
689.726	13908.13
695.193	13904.12
700.655	13901.46
706.11	13913.46
711.56	13907.79
717.004	13904.46
722.442	13892.13
727.874	13875.12
733.301	13871.79
738.722	13875.12
744.137	13906.79
749.547	13957.13
754.951	14010.12
760.349	14052.46
765.741	14117.13
771.128	14135.12
776.509	14202.79
781.885	14271.12
787.254	14294.79
792.618	14342.46
797.977	14344.46
803.33	14373.12
808.677	14326.12
814.019	14316.12
819.355	14259.13
824.686	14275.46
830.011	14301.46
835.33	14361.46
840.644	14490.12
845.952	14616.79
851.255	14752.79
856.552	14850.12
861.844	14920.12
867.13	14986.79
872.41	14995.13
877.686	15029.46
882.955	15055.12
888.219	15053.79
893.478	14935.12
898.731	14754.12
903.979	14564.79
909.221	14420.12
914.458	14413.79
919.69	14449.79
924.916	14553.79
930.136	14652.13
935.351	14746.46
940.561	14839.46
945.766	14933.12
950.965	15027.79
956.158	15093.79
961.347	15083.46
966.529	15080.13
971.707	14961.79
976.879	14908.79
982.046	14886.46
9

File: etoh on glass_RamanShift_1.txt
Data from etoh on glass_RamanShift_1.txt Node

Date: Tue Nov 07 11:07:47 IST 2017
User: aro
Spectrometer: QEPB0276
Trigger mode: 0
Integration Time (sec): 1.500000E1
Scans to average: 3
Electric dark correction enabled: true
Nonlinearity correction enabled: false
Boxcar width: 0
XAxis mode: Raman Shifts
Number of Pixels in Spectrum: 1044
>>>>>Begin Spectral Data<<<<<
160.701	5.92
184.826	146.92
208.845	768.25
232.758	868.58
256.565	945.25
280.267	1008.25
303.865	1089.58
327.359	1164.58
350.751	1233.25
374.04	1283.92
397.228	1303.58
420.315	1539.25
443.302	1285.25
466.189	1223.92
488.978	1193.25
511.668	1084.92
534.261	983.92
556.756	978.92
579.155	952.58
601.459	928.58
623.667	905.92
645.781	936.92
667.8	859.25
689.726	826.58
711.56	812.92
733.301	803.92
754.951	826.92
776.509	808.58
797.977	822.58
819.355	806.25
840.644	787.92
861.844	774.25
882.955	778.58
903.979	752.25
924.916	777.92
945.766	790.25
966.529	782.58
987.208	789.92
1007.801	841.25
1028.309	906.25
1048.734	954.25
1069.075	1013.25
1089.333	1148.92
1109.509	1274.58
1129.602	1341.58
1149.614	1476.58
1169.545	1647.25
1189.395	1780.92
1209.165	1925.25
1228.856	2144.92
1248.467	2313.92
1268	2365.92
1287.455	2577.25
1306.832	3161.58
1326.132	3934.25
1345.354	4583.25
1364.501	4883.25
1383.572	4931.25
1402.567	4763.92
1421.487	4548.58
1440.333	4397.92
1459.104	4164.25
1477.802	3808.25
1496.426	3614.58
1514.978	3494.25
1533.457	3292.25
1551.864	3064.25
1570.199	2974.58
1588.464	2937.92
1606.657	2811.58
1624.78	2645.58
1642.834	2637.25
1660.817	2630.92
1678.732	2546.92
1696.577	2356.92
1714.355	2148.92
1732.064	2086.58
1749.705	1925.25
1767.28	1795.92
1784.787	1810.25
1802.228	1793.92
1819.603	1707.58
1836.913	1695.25
1854.156	1737.92
1871.335	1793.25
1888.449	1787.58
1905.499	1734.58
1922.485	1681.25
1939.408	1586.58
1956.267	1385.92
1973.063	1146.25
1989.797	971.92
2006.469	863.58
2023.078	755.92
2039.627	663.25
2056.114	602.92
2072.54	575.25
2088.906	552.58
2105.211	508.25
2121.457	454.92
2137.643	421.58
2153.77	393.92
2169.838	372.58
2185.848	343.92
2201.799	331.25
2217.693	325.92
2233.529	320.25
2249.307	306.92
2265.029	289.58
2280.694	276.92
2296.302	266.25
2311.854	250.92
2327.351	249.25
2342.792	239.92
2358.178	238.92
2373.508	240.58
2388.785	231.58
2404.007	227.58
2419.174	223.25
2434.289	217.92
2449.349	211.92
2464.356	205.92
2479.311	201.92
2494.213	198.58
2509.062	198.58
2523.859	198.92
2538.605	189.58
2553.299	194.25
2567.941	186.58
2582.533	181.25
2597.073	171.58
2611.564	164.92
2626.004	155.25
2640.394	144.25
2654.734	138.25
2669.025	125.58
2683.266	129.92
2697.458	116.92
2711.602	115.58
2725.697	110.58
2739.744	112.25
2753.743	110.25
2767.695	100.92
2781.598	97.25
2795.455	96.92
2809.264	93.58
2823.026	91.92
2836.742	93.58
2850.412	90.58
2864.035	91.58
2877.613	84.92
2891.145	85.25
2904.631	74.58
2918.073	76.25
2931.469	76.58
2944.821	78.58
2958.128	79.58
2971.39	79.92
2984.609	84.58
2997.784	85.92
3010.915	90.58
3024.002	88.92
3037.046	91.92
3050.048	102.25
3063.006	113.25
3075.922	125.58
3088.795	135.92
3101.627	148.92
3114.416	155.92
3127.163	167.58
3139.869	179.92
3152.533	187.25
3165.157	199.58
3177.739	199.25
3190.28	219.25
3202.781	234.92
3215.241	258.58
3227.661	274.25
3240.041	297.92
3252.382	312.58
3264.682	327.92
3276.943	342.92
3289.165	329.25
3301.348	307.92
3313.492	290.58
3325.597	274.58
3337.663	260.25
3349.691	250.92
3361.681	222.92
3373.633	204.25
3385.547	184.25
3397.424	166.25
3409.263	147.58
3421.065	136.58
3432.829	128.25
3444.557	112.58
3456.247	95.58
3467.902	81.92
3479.519	69.92
3491.101	63.25
3502.646	52.58
3514.155	47.25
3525.629	35.92
3537.067	27.58
3548.469	24.25
3559.837	20.58
3571.169	19.58
3582.466	13.58
3593.728	9.58
3604.956	6.25
3616.149	3.58
3627.307	3.92
3638.432	2.92
3649.523	-0.75
3660.579	-1.75
3671.602	-0.42
3682.591	-6.42
3693.547	-4.75
3704.47	-3.75
3715.359	-7.75
3726.216	-8.42
3737.039	-13.75
3747.83	-14.42
3758.589	-16.42
3769.315	-12.42
3780.008	-13.08
3790.67	-15.42
3801.299	-13.42
3811.897	-14.75
3822.463	-19.75
3832.998	-18.42
3843.501	-15.75
3853.973	-18.75
3864.414	-19.08
3874.823	-12.75
3885.202	1.92
3895.55	-18.08
3905.868	-18.42
3916.155	-20.08
3926.411	-20.08
3936.638	-18.75
3946.834	-18.08
3957	-21.75
3967.137	-21.08
3977.244	-21.75
3987.321	-18.08
3997.369	-19.08
4007.388	-20.08
4017.377	-15.75
4027.338	-19.42
4037.269	-19.08
4047.172	-21.75
4057.046	-20.75
4066.891	-18.75
4076.708	-16.08
4086.497	-18.75
4096.257	-20.75
4105.989	2.58
4115.694	4.92
4125.37	-21.75
4135.019	-20.75
4142.237	-23.08