Folder: Water/Data/Raman/2017-07-31 - SERS Giorgi

Note: Data/Raman/2017-07-31 - SERS Giorgi/1mM 500C_RamanShift_1.txt
Data from 1mM 500C_RamanShift_1.txt Node
Date: Mon Jul 31 11:41:29 IDT 2017
User: aro
Spectrometer: QEPB0276
Trigger mode: 0
Integration Time (sec): 5.000000E0
Scans to average: 3
Electric dark correction enabled: true
Nonlinearity correction enabled: false
Boxcar width: 10
XAxis mode: Raman Shifts
Number of Pixels in Spectrum: 1044
>>>>>Begin Spectral Data<<<<<
160.701	145.41
166.742	159.19
172.777	171.63
178.805	182.62
184.826	192.5
190.841	201.25
196.849	208.79
202.85	215.74
208.845	222.11
214.833	227.78
220.815	233.04
226.789	249.34
232.758	265.83
238.719	282.4
244.674	298.09
250.623	311.88
256.565	322.83
262.5	329.69
268.429	333.47
274.351	335.8
280.267	338.02
286.176	340.02
292.079	341.75
297.975	343.06
303.865	344.18
309.748	344.91
315.625	345.55
321.495	346.83
327.359	348.2
333.217	348.96
339.068	349.69
344.912	350.37
350.751	351.28
356.583	352.91
362.408	355.18
368.227	357.18
374.04	358.5
379.847	358.4
385.647	358.4
391.44	358.17
397.228	358.13
403.009	357.79
408.784	357.36
414.553	356.79
420.315	355.99
426.071	354.77
431.821	353.87
437.565	352.67
443.302	350.69
449.033	347.79
454.758	345.2
460.477	343.53
466.189	342.6
471.896	342.21
477.596	341.02
483.29	338.63
488.978	336.34
494.66	334.44
500.335	333.83
506.005	333.2
511.668	332.8
517.325	332.6
522.977	332.63
528.622	332.44
534.261	332.45
539.894	332.53
545.521	333.13
551.141	333.34
556.756	333.9
562.365	334.69
567.968	336.13
573.565	337.9
579.155	339.29
584.74	340.26
590.319	340.64
595.892	341.12
601.459	341.67
607.02	342.12
612.575	342.8
618.124	343.63
623.667	344.61
629.204	345.67
634.735	346.45
640.261	347.74
645.781	349.25
651.294	350.63
656.802	352.28
662.304	353.63
667.8	355.4
673.29	357.25
678.775	359.36
684.254	361.58
689.726	363.6
695.193	365.26
700.655	366.9
706.11	368.09
711.56	369.04
717.004	370.67
722.442	372.55
727.874	374.75
733.301	376.99
738.722	379.44
744.137	381.82
749.547	384.33
754.951	386.23
760.349	388.31
765.741	390.42
771.128	392.28
776.509	394.52
781.885	396.63
787.254	398.77
792.618	400.79
797.977	402.44
803.33	404.26
808.677	406.34
814.019	408.31
819.355	410.4
824.686	412.37
830.011	413.94
835.33	415.53
840.644	416.87
845.952	417.87
851.255	418.72
856.552	419.61
861.844	420.4
867.13	421.71
872.41	423.18
877.686	424.82
882.955	426.98
888.219	429.02
893.478	431.18
898.731	433.44
903.979	435.17
909.221	437.33
914.458	439.06
919.69	440.33
924.916	441.12
930.136	441.85
935.351	442.39
940.561	443.01
945.766	443.8
950.965	444.93
956.158	446.25
961.347	447.67
966.529	449.61
971.707	451.66
976.879	453.31
982.046	454.79
987.208	455.8
992.364	456.83
997.515	457.31
1002.66	457.29
1007.801	456.83
1012.936	457.04
1018.066	456.99
1023.19	457.44
1028.309	457.98
1033.423	459.07
1038.532	460.28
1043.636	461.99
1048.734	464.01
1053.827	465.82
1058.915	467.28
1063.998	468.63
1069.075	469.29
1074.147	469.63
1079.2

Note: Data/Raman/2017-07-31 - SERS Giorgi/1mM HCl_RamanShift_1.txt
Data from 1mM HCl_RamanShift_1.txt Node
Date: Mon Jul 31 11:39:41 IDT 2017
User: aro
Spectrometer: QEPB0276
Trigger mode: 0
Integration Time (sec): 5.000000E0
Scans to average: 3
Electric dark correction enabled: true
Nonlinearity correction enabled: false
Boxcar width: 10
XAxis mode: Raman Shifts
Number of Pixels in Spectrum: 1044
>>>>>Begin Spectral Data<<<<<
160.701	264.91
166.742	291.76
172.777	315.84
178.805	337.86
184.826	358.24
190.841	376.81
196.849	393.03
202.85	408.38
208.845	422.56
214.833	435.78
220.815	448.19
226.789	482.05
232.758	516.93
238.719	551.6
244.674	585.65
250.623	617.27
256.565	643.95
262.5	663.25
268.429	677.93
274.351	690.55
280.267	702.35
286.176	713.98
292.079	725.71
297.975	736.63
303.865	747.16
309.748	756.9
315.625	766.87
321.495	777.35
327.359	787.76
333.217	797.93
339.068	808.44
344.912	819.33
350.751	829.86
356.583	841.14
362.408	853.6
368.227	865.93
374.04	877.09
379.847	887.03
385.647	897.52
391.44	907.68
397.228	917.71
403.009	928.09
408.784	938.86
414.553	949.3
420.315	959.93
426.071	970.47
431.821	981.11
437.565	991.54
443.302	1001.73
449.033	1011.7
454.758	1023.14
460.477	1036.47
466.189	1051.92
471.896	1068.14
477.596	1081.89
483.29	1093.22
488.978	1104.47
494.66	1116.27
500.335	1128.95
506.005	1141.43
511.668	1154.25
517.325	1167.43
522.977	1179.89
528.622	1191.89
534.261	1203.57
539.894	1215.08
545.521	1226.47
551.141	1237.74
556.756	1248.49
562.365	1259.39
567.968	1270.2
573.565	1279.73
579.155	1287.05
584.74	1291.3
590.319	1295.46
595.892	1300.05
601.459	1306.01
607.02	1311.14
612.575	1315.74
618.124	1320.11
623.667	1324.54
629.204	1328.32
634.735	1331.3
640.261	1334.78
645.781	1337.86
651.294	1339.82
656.802	1342.3
662.304	1343.78
667.8	1344.76
673.29	1345.59
678.775	1346.17
684.254	1346.27
689.726	1346.11
695.193	1345.32
700.655	1344.78
706.11	1342.92
711.56	1340.93
717.004	1339.33
722.442	1337.7
727.874	1336.73
733.301	1335.24
738.722	1333.44
744.137	1331.95
749.547	1329.87
754.951	1327.36
760.349	1324.89
765.741	1322.41
771.128	1319.41
776.509	1317.2
781.885	1315.32
787.254	1313.89
792.618	1312.66
797.977	1311.66
803.33	1311
808.677	1310.66
814.019	1310.11
819.355	1310.16
824.686	1310.36
830.011	1309.63
835.33	1309.44
840.644	1308.54
845.952	1308.25
851.255	1307.86
856.552	1307.2
861.844	1307.57
867.13	1308.65
872.41	1310.82
877.686	1314.17
882.955	1318.2
888.219	1323.24
893.478	1328.47
898.731	1333.54
903.979	1338.39
909.221	1343.36
914.458	1347.41
919.69	1350.95
924.916	1354.63
930.136	1357.68
935.351	1360.71
940.561	1364.93
945.766	1369.86
950.965	1376.2
956.158	1383.14
961.347	1391.65
966.529	1401.65
971.707	1412.01
976.879	1422.41
982.046	1432.59
987.208	1442.73
992.364	1452.27
997.515	1460.35
1002.66	1468.3
1007.801	1475.7
1012.936	1483.84
1018.066	1492.33
1023.19	1502.32
1028.309	1513.6
1033.423	1526.25
1038.532	1540.62
1043.636	1556

File: Plain Glass Slide_RamanShift_1.txt
Data from Plain Glass Slide_RamanShift_1.txt Node

Date: Mon Jul 31 11:43:14 IDT 2017
User: aro
Spectrometer: QEPB0276
Trigger mode: 0
Integration Time (sec): 5.000000E0
Scans to average: 3
Electric dark correction enabled: true
Nonlinearity correction enabled: false
Boxcar width: 10
XAxis mode: Raman Shifts
Number of Pixels in Spectrum: 1044
>>>>>Begin Spectral Data<<<<<
160.701	206.4
184.826	282.66
208.845	336.93
232.758	416.66
256.565	528.87
280.267	600.25
303.865	666.12
327.359	724.06
350.751	769.55
374.04	804.11
397.228	809.09
420.315	793.84
443.302	767.39
466.189	736.05
488.978	702.03
511.668	680.52
534.261	664.97
556.756	651.82
579.155	641.66
601.459	634.55
623.667	620.03
645.781	602.17
667.8	584.16
689.726	568.41
711.56	552.87
733.301	541.39
754.951	532.98
776.509	524.65
797.977	518.12
819.355	514.06
840.644	511
861.844	507.81
882.955	511.74
903.979	522.08
924.916	534.28
945.766	551
966.529	582.81
987.208	628.89
1007.801	685.16
1028.309	765.09
1048.734	883.25
1069.075	1031.87
1089.333	1203.93
1109.509	1413.98
1129.602	1663.92
1149.614	1924.78
1169.545	2200.47
1189.395	2509.59
1209.165	2820.33
1228.856	3100.98
1248.467	3429.46
1268	3927.01
1287.455	4634.52
1306.832	5522.01
1326.132	6468.54
1345.354	7306.39
1364.501	7902.71
1383.572	8163.46
1402.567	8113.11
1421.487	7833.32
1440.333	7462.81
1459.104	7079.49
1477.802	6693.46
1496.426	6272.81
1514.978	5866.2
1533.457	5556.78
1551.864	5307.06
1570.199	5063.93
1588.464	4858.81
1606.657	4719.38
1624.78	4600.54
1642.834	4450.06
1660.817	4262.79
1678.732	4053.49
1696.577	3836.68
1714.355	3572.11
1732.064	3309.92
1749.705	3111.39
1767.28	2977.27
1784.787	2841.36
1802.228	2758.41
1819.603	2732.01
1836.913	2717.98
1854.156	2708.17
1871.335	2709.28
1888.449	2686.14
1905.499	2604.44
1922.485	2438.66
1939.408	2209.76
1956.267	1955.08
1973.063	1687.2
1989.797	1422.41
2006.469	1192.74
2023.078	1014.22
2039.627	875.09
2056.114	762.44
2072.54	667.55
2088.906	591.59
2105.211	528.84
2121.457	474.2
2137.643	425.06
2153.77	384.25
2169.838	353.68
2185.848	329.73
2201.799	310.7
2217.693	294.01
2233.529	280.06
2249.307	267.09
2265.029	254.14
2280.694	240.86
2296.302	229.22
2311.854	219.84
2327.351	212.47
2342.792	207.71
2358.178	204.47
2373.508	202.32
2388.785	199.47
2404.007	197.12
2419.174	193.19
2434.289	188.09
2449.349	183.51
2464.356	178.9
2479.311	174.76
2494.213	169.84
2509.062	166.36
2523.859	162.9
2538.605	158.86
2553.299	153.82
2567.941	149.11
2582.533	143.78
2597.073	137.82
2611.564	131.82
2626.004	126.05
2640.394	120.22
2654.734	114.86
2669.025	109.97
2683.266	104.73
2697.458	99.89
2711.602	96.49
2725.697	93.9
2739.744	90.27
2753.743	86.73
2767.695	84.06
2781.598	82.01
2795.455	79.89
2809.264	78.54
2823.026	78.7
2836.742	78.12
2850.412	77.59
2864.035	77.27
2877.613	77.11
2891.145	76.54
2904.631	77.44
2918.073	79.41
2931.469	81.73
2944.821	85.65
2958.128	91.82
2971.39	98.93
2984.609	106.63
2997.784	115.16
3010.915	125.27
3024.002	136.79
3037.046	151.17
3050.048	167.82
3063.006	186.57
3075.922	206.03
3088.795	226.79
3101.627	247.95
3114.416	269.19
3127.163	289.82
3139.869	309.59
3152.533	329.9
3165.157	350.65
3177.739	374.47
3190.28	403.39
3202.781	437.98
3215.241	476.03
3227.661	516.57
3240.041	555.25
3252.382	586.97
3264.682	606.98
3276.943	613.9
3289.165	607.63
3301.348	589.98
3313.492	564.89
3325.597	537.51
3337.663	508.36
3349.691	477.86
3361.681	445.44
3373.633	411.06
3385.547	376.12
3397.424	343.27
3409.263	313.12
3421.065	284.66
3432.829	258.03
3444.557	232.46
3456.247	207.28
3467.902	183.43
3479.519	162.14
3491.101	142.78
3502.646	125.51
3514.155	109.16
3525.629	94.68
3537.067	82
3548.469	71.51
3559.837	62.38
3571.169	55.82
3582.466	49.84
3593.728	44.41
3604.956	39.47
3616.149	35.81
3627.307	31.95
3638.432	28.95
3649.523	26.46
3660.579	24.36
3671.602	21.95
3682.591	19.54
3693.547	17.2
3704.47	14.71
3715.359	12.39
3726.216	10.41
3737.039	8.3
3747.83	6.19
3758.589	4.41
3769.315	3.17
3780.008	1.59
3790.67	-0.08
3801.299	-1.26
3811.897	-1.95
3822.463	-2.78
3832.998	-3.67
3843.501	-4.11
3853.973	-4.46
3864.414	-4.76
3874.823	-5.22
3885.202	-5.48
3895.55	-6
3905.868	-6.72
3916.155	-7.21
3926.411	-7.22
3936.638	-7.7
3946.834	-8.11
3957	-7.88
3967.137	-7.7
3977.244	-8.05
3987.321	-8.07
3997.369	-7.99
4007.388	-8.26
4017.377	-8.18
4027.338	-8.07
4037.269	-8.18
4047.172	-8.68
4057.046	-8.37
4066.891	-8.18
4076.708	-8.99
4086.497	-8.34
4096.257	-7.1
4105.989	-7.34
4115.694	-8.14
4125.37	-7.69
4135.019	-7.9
4142.237	-9.6