Folder: Water/Data/Raman/2018-3-21 - Pesticides 300uL

Note: Data/Raman/2018-3-21 - Pesticides 300uL/1_RamanShift_01.txt
Data from 1_RamanShift_01.txt Node
Date: Wed Mar 21 15:16:07 IST 2018
User: aro
Spectrometer: QEPB0276
Trigger mode: 0
Integration Time (sec): 5.000000E0
Scans to average: 1
Electric dark correction enabled: true
Nonlinearity correction enabled: false
Boxcar width: 0
XAxis mode: Raman Shifts
Number of Pixels in Spectrum: 1044
>>>>>Begin Spectral Data<<<<<
160.701	-2.4
166.742	2.6
172.777	0.6
178.805	14.6
184.826	30.6
190.841	62.6
196.849	92.6
202.85	124.6
208.845	124.6
214.833	122.6
220.815	124.6
226.789	120.6
232.758	123.6
238.719	125.6
244.674	119.6
250.623	126.6
256.565	124.6
262.5	123.6
268.429	122.6
274.351	116.6
280.267	118.6
286.176	115.6
292.079	117.6
297.975	114.6
303.865	118.6
309.748	122.6
315.625	119.6
321.495	121.6
327.359	118.6
333.217	113.6
339.068	119.6
344.912	110.6
350.751	120.6
356.583	119.6
362.408	119.6
368.227	128.6
374.04	129.6
379.847	130.6
385.647	136.6
391.44	128.6
397.228	124.6
403.009	121.6
408.784	134.6
414.553	147.6
420.315	158.6
426.071	167.6
431.821	139.6
437.565	132.6
443.302	124.6
449.033	122.6
454.758	114.6
460.477	122.6
466.189	121.6
471.896	116.6
477.596	117.6
483.29	117.6
488.978	114.6
494.66	110.6
500.335	110.6
506.005	103.6
511.668	94.6
517.325	95.6
522.977	84.6
528.622	83.6
534.261	79.6
539.894	82.6
545.521	77.6
551.141	79.6
556.756	76.6
562.365	68.6
567.968	72.6
573.565	68.6
579.155	68.6
584.74	64.6
590.319	72.6
595.892	69.6
601.459	69.6
607.02	73.6
612.575	63.6
618.124	70.6
623.667	67.6
629.204	67.6
634.735	66.6
640.261	69.6
645.781	77.6
651.294	77.6
656.802	71.6
662.304	67.6
667.8	63.6
673.29	60.6
678.775	63.6
684.254	60.6
689.726	65.6
695.193	62.6
700.655	61.6
706.11	61.6
711.56	59.6
717.004	62.6
722.442	57.6
727.874	66.6
733.301	59.6
738.722	57.6
744.137	57.6
749.547	53.6
754.951	62.6
760.349	64.6
765.741	59.6
771.128	56.6
776.509	58.6
781.885	59.6
787.254	63.6
792.618	64.6
797.977	59.6
803.33	53.6
808.677	57.6
814.019	59.6
819.355	56.6
824.686	58.6
830.011	57.6
835.33	56.6
840.644	57.6
845.952	64.6
851.255	61.6
856.552	54.6
861.844	52.6
867.13	55.6
872.41	54.6
877.686	52.6
882.955	53.6
888.219	48.6
893.478	50.6
898.731	43.6
903.979	45.6
909.221	48.6
914.458	42.6
919.69	42.6
924.916	47.6
930.136	48.6
935.351	53.6
940.561	51.6
945.766	49.6
950.965	47.6
956.158	44.6
961.347	45.6
966.529	42.6
971.707	46.6
976.879	45.6
982.046	41.6
987.208	41.6
992.364	41.6
997.515	43.6
1002.66	43.6
1007.801	44.6
1012.936	45.6
1018.066	37.6
1023.19	44.6
1028.309	43.6
1033.423	46.6
1038.532	47.6
1043.636	45.6
1048.734	43.6
1053.827	43.6
1058.915	38.6
1063.998	40.6
1069.075	36.6
1074.147	39.6
1079.214	38.6
1084.276	41.6
1089.333	44.6
1094.385	44.6
1099.431	42.6
1104.472	35.6
1109.509	37.6
1114.54	35.6
1119.565	37.6
1124.586	34.6
1129.602	33.6
1134.613	39.6
1139.618	39.6
1144.619	41.6
1149.614	43.6
1154.604	39.6
1159.589	37.6
1164.57	35.6
1169

Note: Data/Raman/2018-3-21 - Pesticides 300uL/1_RamanShift_02.txt
Data from 1_RamanShift_02.txt Node
Date: Wed Mar 21 15:16:12 IST 2018
User: aro
Spectrometer: QEPB0276
Trigger mode: 0
Integration Time (sec): 5.000000E0
Scans to average: 1
Electric dark correction enabled: true
Nonlinearity correction enabled: false
Boxcar width: 0
XAxis mode: Raman Shifts
Number of Pixels in Spectrum: 1044
>>>>>Begin Spectral Data<<<<<
160.701	-1.9
166.742	2.1
172.777	4.1
178.805	13.1
184.826	28.1
190.841	54.1
196.849	88.1
202.85	115.1
208.845	118.1
214.833	110.1
220.815	112.1
226.789	110.1
232.758	109.1
238.719	114.1
244.674	116.1
250.623	115.1
256.565	116.1
262.5	116.1
268.429	110.1
274.351	109.1
280.267	109.1
286.176	108.1
292.079	103.1
297.975	108.1
303.865	111.1
309.748	113.1
315.625	111.1
321.495	114.1
327.359	116.1
333.217	110.1
339.068	112.1
344.912	115.1
350.751	113.1
356.583	118.1
362.408	117.1
368.227	119.1
374.04	121.1
379.847	124.1
385.647	133.1
391.44	124.1
397.228	122.1
403.009	116.1
408.784	132.1
414.553	141.1
420.315	155.1
426.071	157.1
431.821	135.1
437.565	125.1
443.302	116.1
449.033	111.1
454.758	112.1
460.477	114.1
466.189	112.1
471.896	104.1
477.596	107.1
483.29	108.1
488.978	107.1
494.66	102.1
500.335	98.1
506.005	94.1
511.668	87.1
517.325	86.1
522.977	80.1
528.622	75.1
534.261	74.1
539.894	71.1
545.521	71.1
551.141	72.1
556.756	66.1
562.365	72.1
567.968	71.1
573.565	63.1
579.155	66.1
584.74	64.1
590.319	68.1
595.892	74.1
601.459	62.1
607.02	72.1
612.575	66.1
618.124	62.1
623.667	65.1
629.204	60.1
634.735	61.1
640.261	66.1
645.781	67.1
651.294	69.1
656.802	65.1
662.304	64.1
667.8	60.1
673.29	53.1
678.775	59.1
684.254	52.1
689.726	54.1
695.193	53.1
700.655	51.1
706.11	46.1
711.56	51.1
717.004	51.1
722.442	48.1
727.874	54.1
733.301	49.1
738.722	53.1
744.137	46.1
749.547	51.1
754.951	54.1
760.349	56.1
765.741	54.1
771.128	57.1
776.509	55.1
781.885	53.1
787.254	56.1
792.618	52.1
797.977	56.1
803.33	53.1
808.677	58.1
814.019	56.1
819.355	53.1
824.686	55.1
830.011	56.1
835.33	55.1
840.644	58.1
845.952	62.1
851.255	58.1
856.552	54.1
861.844	44.1
867.13	50.1
872.41	52.1
877.686	55.1
882.955	48.1
888.219	43.1
893.478	46.1
898.731	40.1
903.979	42.1
909.221	38.1
914.458	40.1
919.69	40.1
924.916	39.1
930.136	44.1
935.351	43.1
940.561	43.1
945.766	41.1
950.965	39.1
956.158	40.1
961.347	37.1
966.529	40.1
971.707	38.1
976.879	40.1
982.046	34.1
987.208	40.1
992.364	38.1
997.515	38.1
1002.66	36.1
1007.801	38.1
1012.936	39.1
1018.066	38.1
1023.19	41.1
1028.309	37.1
1033.423	38.1
1038.532	41.1
1043.636	44.1
1048.734	44.1
1053.827	42.1
1058.915	39.1
1063.998	39.1
1069.075	37.1
1074.147	39.1
1079.214	37.1
1084.276	39.1
1089.333	40.1
1094.385	44.1
1099.431	41.1
1104.472	35.1
1109.509	38.1
1114.54	36.1
1119.565	35.1
1124.586	30.1
1129.602	33.1
1134.613	35.1
1139.618	34.1
1144.619	36.1
1149.614	36.1
1154.604	36.1
1159.589	32.1
1164.57	30.1
1169.5

File: aluminum_RamanShift_01.txt
Data from aluminum_RamanShift_01.txt Node

Date: Wed Mar 21 14:59:27 IST 2018
User: aro
Spectrometer: QEPB0276
Trigger mode: 0
Integration Time (sec): 5.000000E0
Scans to average: 1
Electric dark correction enabled: true
Nonlinearity correction enabled: false
Boxcar width: 0
XAxis mode: Raman Shifts
Number of Pixels in Spectrum: 1044
>>>>>Begin Spectral Data<<<<<
160.701	1.8
184.826	17.8
208.845	69.8
232.758	72.8
256.565	76.8
280.267	88.8
303.865	86.8
327.359	90.8
350.751	90.8
374.04	96.8
397.228	90.8
420.315	138.8
443.302	99.8
466.189	85.8
488.978	89.8
511.668	69.8
534.261	47.8
556.756	43.8
579.155	37.8
601.459	39.8
623.667	36.8
645.781	49.8
667.8	34.8
689.726	29.8
711.56	30.8
733.301	27.8
754.951	33.8
776.509	35.8
797.977	36.8
819.355	35.8
840.644	38.8
861.844	26.8
882.955	31.8
903.979	21.8
924.916	26.8
945.766	23.8
966.529	23.8
987.208	27.8
1007.801	25.8
1028.309	26.8
1048.734	27.8
1069.075	23.8
1089.333	28.8
1109.509	22.8
1129.602	16.8
1149.614	28.8
1169.545	25.8
1189.395	25.8
1209.165	23.8
1228.856	26.8
1248.467	23.8
1268	18.8
1287.455	22.8
1306.832	15.8
1326.132	20.8
1345.354	20.8
1364.501	17.8
1383.572	19.8
1402.567	14.8
1421.487	13.8
1440.333	19.8
1459.104	18.8
1477.802	22.8
1496.426	18.8
1514.978	15.8
1533.457	17.8
1551.864	14.8
1570.199	18.8
1588.464	17.8
1606.657	18.8
1624.78	15.8
1642.834	17.8
1660.817	16.8
1678.732	14.8
1696.577	13.8
1714.355	21.8
1732.064	13.8
1749.705	16.8
1767.28	12.8
1784.787	12.8
1802.228	12.8
1819.603	6.8
1836.913	9.8
1854.156	10.8
1871.335	11.8
1888.449	13.8
1905.499	12.8
1922.485	13.8
1939.408	10.8
1956.267	12.8
1973.063	11.8
1989.797	10.8
2006.469	8.8
2023.078	9.8
2039.627	0.8
2056.114	11.8
2072.54	13.8
2088.906	3.8
2105.211	8.8
2121.457	7.8
2137.643	3.8
2153.77	7.8
2169.838	5.8
2185.848	8.8
2201.799	9.8
2217.693	5.8
2233.529	7.8
2249.307	6.8
2265.029	5.8
2280.694	1.8
2296.302	2.8
2311.854	5.8
2327.351	3.8
2342.792	6.8
2358.178	8.8
2373.508	-0.2
2388.785	3.8
2404.007	5.8
2419.174	1.8
2434.289	4.8
2449.349	1.8
2464.356	2.8
2479.311	5.8
2494.213	-1.2
2509.062	4.8
2523.859	1.8
2538.605	0.8
2553.299	1.8
2567.941	1.8
2582.533	3.8
2597.073	6.8
2611.564	5.8
2626.004	5.8
2640.394	-2.2
2654.734	0.8
2669.025	0.8
2683.266	-1.2
2697.458	1.8
2711.602	-0.2
2725.697	-0.2
2739.744	0.8
2753.743	1.8
2767.695	1.8
2781.598	-4.2
2795.455	3.8
2809.264	1.8
2823.026	-4.2
2836.742	7.8
2850.412	2.8
2864.035	1.8
2877.613	6.8
2891.145	-7.2
2904.631	2.8
2918.073	-0.2
2931.469	-0.2
2944.821	2.8
2958.128	-0.2
2971.39	1.8
2984.609	-4.2
2997.784	-7.2
3010.915	-3.2
3024.002	-1.2
3037.046	5.8
3050.048	-2.2
3063.006	0.8
3075.922	-5.2
3088.795	-0.2
3101.627	-0.2
3114.416	-1.2
3127.163	-0.2
3139.869	0.8
3152.533	-1.2
3165.157	-4.2
3177.739	-2.2
3190.28	-3.2
3202.781	-5.2
3215.241	0.8
3227.661	1.8
3240.041	-5.2
3252.382	-2.2
3264.682	-2.2
3276.943	-3.2
3289.165	-1.2
3301.348	-4.2
3313.492	-2.2
3325.597	-2.2
3337.663	-6.2
3349.691	-1.2
3361.681	-2.2
3373.633	-1.2
3385.547	-1.2
3397.424	-2.2
3409.263	-6.2
3421.065	1.8
3432.829	-3.2
3444.557	-3.2
3456.247	-2.2
3467.902	-0.2
3479.519	1.8
3491.101	-5.2
3502.646	-2.2
3514.155	-2.2
3525.629	-2.2
3537.067	0.8
3548.469	-3.2
3559.837	-1.2
3571.169	3.8
3582.466	-5.2
3593.728	-3.2
3604.956	1.8
3616.149	-8.2
3627.307	1.8
3638.432	-1.2
3649.523	-1.2
3660.579	-0.2
3671.602	1.8
3682.591	-1.2
3693.547	-9.2
3704.47	-3.2
3715.359	-5.2
3726.216	-5.2
3737.039	-4.2
3747.83	-5.2
3758.589	-2.2
3769.315	-4.2
3780.008	-4.2
3790.67	-6.2
3801.299	-1.2
3811.897	-5.2
3822.463	-0.2
3832.998	-1.2
3843.501	-3.2
3853.973	-1.2
3864.414	-3.2
3874.823	-1.2
3885.202	-2.2
3895.55	-5.2
3905.868	-3.2
3916.155	-6.2
3926.411	-4.2
3936.638	-4.2
3946.834	-5.2
3957	-1.2
3967.137	-3.2
3977.244	-4.2
3987.321	-5.2
3997.369	-5.2
4007.388	-0.2
4017.377	-1.2
4027.338	0.8
4037.269	-6.2
4047.172	-6.2
4057.046	-7.2
4066.891	-3.2
4076.708	-0.2
4086.497	-0.2
4096.257	-5.2
4105.989	5.8
4115.694	2.8
4125.37	-4.2
4135.019	-6.2
4142.237	-4.2

File: aluminum_RamanShift_02.txt
Data from aluminum_RamanShift_02.txt Node

Date: Wed Mar 21 14:59:32 IST 2018
User: aro
Spectrometer: QEPB0276
Trigger mode: 0
Integration Time (sec): 5.000000E0
Scans to average: 1
Electric dark correction enabled: true
Nonlinearity correction enabled: false
Boxcar width: 0
XAxis mode: Raman Shifts
Number of Pixels in Spectrum: 1044
>>>>>Begin Spectral Data<<<<<
160.701	1.9
184.826	17.9
208.845	73.9
232.758	72.9
256.565	77.9
280.267	81.9
303.865	83.9
327.359	91.9
350.751	94.9
374.04	97.9
397.228	92.9
420.315	137.9
443.302	101.9
466.189	95.9
488.978	91.9
511.668	59.9
534.261	44.9
556.756	42.9
579.155	34.9
601.459	38.9
623.667	35.9
645.781	45.9
667.8	33.9
689.726	28.9
711.56	25.9
733.301	29.9
754.951	34.9
776.509	34.9
797.977	34.9
819.355	34.9
840.644	29.9
861.844	23.9
882.955	28.9
903.979	22.9
924.916	25.9
945.766	29.9
966.529	24.9
987.208	18.9
1007.801	20.9
1028.309	22.9
1048.734	27.9
1069.075	19.9
1089.333	27.9
1109.509	26.9
1129.602	15.9
1149.614	26.9
1169.545	19.9
1189.395	21.9
1209.165	20.9
1228.856	21.9
1248.467	25.9
1268	17.9
1287.455	18.9
1306.832	16.9
1326.132	17.9
1345.354	16.9
1364.501	9.9
1383.572	17.9
1402.567	15.9
1421.487	13.9
1440.333	17.9
1459.104	17.9
1477.802	18.9
1496.426	14.9
1514.978	13.9
1533.457	16.9
1551.864	12.9
1570.199	18.9
1588.464	13.9
1606.657	12.9
1624.78	9.9
1642.834	11.9
1660.817	15.9
1678.732	9.9
1696.577	11.9
1714.355	14.9
1732.064	10.9
1749.705	12.9
1767.28	14.9
1784.787	11.9
1802.228	10.9
1819.603	6.9
1836.913	7.9
1854.156	8.9
1871.335	8.9
1888.449	9.9
1905.499	10.9
1922.485	10.9
1939.408	4.9
1956.267	5.9
1973.063	12.9
1989.797	13.9
2006.469	5.9
2023.078	8.9
2039.627	2.9
2056.114	9.9
2072.54	8.9
2088.906	1.9
2105.211	9.9
2121.457	7.9
2137.643	4.9
2153.77	6.9
2169.838	4.9
2185.848	3.9
2201.799	3.9
2217.693	4.9
2233.529	6.9
2249.307	6.9
2265.029	3.9
2280.694	1.9
2296.302	-0.1
2311.854	3.9
2327.351	2.9
2342.792	1.9
2358.178	4.9
2373.508	0.9
2388.785	4.9
2404.007	3.9
2419.174	0.9
2434.289	6.9
2449.349	0.9
2464.356	4.9
2479.311	5.9
2494.213	2.9
2509.062	1.9
2523.859	-1.1
2538.605	1.9
2553.299	2.9
2567.941	2.9
2582.533	2.9
2597.073	2.9
2611.564	-1.1
2626.004	0.9
2640.394	-2.1
2654.734	0.9
2669.025	0.9
2683.266	-1.1
2697.458	-1.1
2711.602	-3.1
2725.697	-3.1
2739.744	-2.1
2753.743	2.9
2767.695	2.9
2781.598	1.9
2795.455	0.9
2809.264	2.9
2823.026	-5.1
2836.742	1.9
2850.412	-3.1
2864.035	-0.1
2877.613	3.9
2891.145	-3.1
2904.631	3.9
2918.073	-4.1
2931.469	-6.1
2944.821	-3.1
2958.128	-2.1
2971.39	-2.1
2984.609	-3.1
2997.784	-5.1
3010.915	-1.1
3024.002	-4.1
3037.046	-1.1
3050.048	-4.1
3063.006	-4.1
3075.922	-4.1
3088.795	0.9
3101.627	2.9
3114.416	-2.1
3127.163	-0.1
3139.869	-6.1
3152.533	-5.1
3165.157	-3.1
3177.739	-6.1
3190.28	-4.1
3202.781	-3.1
3215.241	-1.1
3227.661	-0.1
3240.041	-8.1
3252.382	-7.1
3264.682	-6.1
3276.943	-7.1
3289.165	-4.1
3301.348	-5.1
3313.492	-2.1
3325.597	-6.1
3337.663	-6.1
3349.691	-4.1
3361.681	-6.1
3373.633	-1.1
3385.547	-1.1
3397.424	-3.1
3409.263	-5.1
3421.065	-0.1
3432.829	-5.1
3444.557	-4.1
3456.247	-5.1
3467.902	-2.1
3479.519	0.9
3491.101	-4.1
3502.646	-6.1
3514.155	-3.1
3525.629	-6.1
3537.067	-4.1
3548.469	-3.1
3559.837	-1.1
3571.169	0.9
3582.466	-5.1
3593.728	-4.1
3604.956	-0.1
3616.149	-7.1
3627.307	-1.1
3638.432	-6.1
3649.523	-2.1
3660.579	-0.1
3671.602	-4.1
3682.591	-3.1
3693.547	-10.1
3704.47	-6.1
3715.359	-3.1
3726.216	-6.1
3737.039	-5.1
3747.83	-7.1
3758.589	-6.1
3769.315	-5.1
3780.008	-6.1
3790.67	-4.1
3801.299	-4.1
3811.897	-7.1
3822.463	-4.1
3832.998	-7.1
3843.501	-6.1
3853.973	-3.1
3864.414	-3.1
3874.823	-1.1
3885.202	-0.1
3895.55	-7.1
3905.868	-6.1
3916.155	-8.1
3926.411	-6.1
3936.638	-3.1
3946.834	-8.1
3957	-2.1
3967.137	-3.1
3977.244	-4.1
3987.321	-6.1
3997.369	-6.1
4007.388	-3.1
4017.377	-7.1
4027.338	1.9
4037.269	-7.1
4047.172	-4.1
4057.046	-4.1
4066.891	-8.1
4076.708	-6.1
4086.497	-3.1
4096.257	-7.1
4105.989	1.9
4115.694	-3.1
4125.37	-3.1
4135.019	-5.1
4142.237	-5.1

File: aluminum_RamanShift_03.txt
Data from aluminum_RamanShift_03.txt Node

Date: Wed Mar 21 14:59:37 IST 2018
User: aro
Spectrometer: QEPB0276
Trigger mode: 0
Integration Time (sec): 5.000000E0
Scans to average: 1
Electric dark correction enabled: true
Nonlinearity correction enabled: false
Boxcar width: 0
XAxis mode: Raman Shifts
Number of Pixels in Spectrum: 1044
>>>>>Begin Spectral Data<<<<<
160.701	1.1
184.826	16.1
208.845	75.1
232.758	74.1
256.565	79.1
280.267	82.1
303.865	81.1
327.359	90.1
350.751	94.1
374.04	101.1
397.228	102.1
420.315	140.1
443.302	96.1
466.189	95.1
488.978	90.1
511.668	68.1
534.261	50.1
556.756	43.1
579.155	38.1
601.459	38.1
623.667	37.1
645.781	49.1
667.8	33.1
689.726	29.1
711.56	30.1
733.301	33.1
754.951	37.1
776.509	38.1
797.977	34.1
819.355	35.1
840.644	33.1
861.844	31.1
882.955	30.1
903.979	27.1
924.916	30.1
945.766	26.1
966.529	22.1
987.208	22.1
1007.801	21.1
1028.309	24.1
1048.734	27.1
1069.075	22.1
1089.333	27.1
1109.509	23.1
1129.602	20.1
1149.614	25.1
1169.545	21.1
1189.395	23.1
1209.165	21.1
1228.856	25.1
1248.467	27.1
1268	17.1
1287.455	21.1
1306.832	18.1
1326.132	18.1
1345.354	19.1
1364.501	16.1
1383.572	22.1
1402.567	18.1
1421.487	13.1
1440.333	20.1
1459.104	19.1
1477.802	17.1
1496.426	17.1
1514.978	19.1
1533.457	20.1
1551.864	15.1
1570.199	20.1
1588.464	13.1
1606.657	14.1
1624.78	16.1
1642.834	16.1
1660.817	21.1
1678.732	16.1
1696.577	16.1
1714.355	18.1
1732.064	15.1
1749.705	10.1
1767.28	14.1
1784.787	16.1
1802.228	10.1
1819.603	10.1
1836.913	12.1
1854.156	9.1
1871.335	8.1
1888.449	12.1
1905.499	12.1
1922.485	13.1
1939.408	14.1
1956.267	8.1
1973.063	10.1
1989.797	8.1
2006.469	9.1
2023.078	11.1
2039.627	7.1
2056.114	9.1
2072.54	12.1
2088.906	4.1
2105.211	9.1
2121.457	9.1
2137.643	6.1
2153.77	9.1
2169.838	10.1
2185.848	9.1
2201.799	2.1
2217.693	4.1
2233.529	6.1
2249.307	8.1
2265.029	7.1
2280.694	4.1
2296.302	3.1
2311.854	6.1
2327.351	1.1
2342.792	4.1
2358.178	7.1
2373.508	1.1
2388.785	8.1
2404.007	5.1
2419.174	5.1
2434.289	5.1
2449.349	-0.9
2464.356	5.1
2479.311	5.1
2494.213	4.1
2509.062	8.1
2523.859	4.1
2538.605	4.1
2553.299	2.1
2567.941	0.1
2582.533	4.1
2597.073	4.1
2611.564	0.1
2626.004	8.1
2640.394	2.1
2654.734	2.1
2669.025	3.1
2683.266	-1.9
2697.458	2.1
2711.602	-2.9
2725.697	0.1
2739.744	3.1
2753.743	2.1
2767.695	1.1
2781.598	-0.9
2795.455	0.1
2809.264	0.1
2823.026	-1.9
2836.742	7.1
2850.412	2.1
2864.035	4.1
2877.613	10.1
2891.145	-2.9
2904.631	-0.9
2918.073	-0.9
2931.469	-0.9
2944.821	-0.9
2958.128	1.1
2971.39	1.1
2984.609	-2.9
2997.784	-4.9
3010.915	-1.9
3024.002	-2.9
3037.046	1.1
3050.048	1.1
3063.006	2.1
3075.922	-1.9
3088.795	-3.9
3101.627	0.1
3114.416	-5.9
3127.163	0.1
3139.869	1.1
3152.533	0.1
3165.157	1.1
3177.739	-1.9
3190.28	-3.9
3202.781	-4.9
3215.241	-6.9
3227.661	0.1
3240.041	-4.9
3252.382	-3.9
3264.682	-1.9
3276.943	-4.9
3289.165	-4.9
3301.348	-5.9
3313.492	0.1
3325.597	-2.9
3337.663	-1.9
3349.691	-1.9
3361.681	-1.9
3373.633	1.1
3385.547	-2.9
3397.424	-3.9
3409.263	-5.9
3421.065	1.1
3432.829	-4.9
3444.557	-0.9
3456.247	-0.9
3467.902	-1.9
3479.519	-0.9
3491.101	-2.9
3502.646	0.1
3514.155	2.1
3525.629	0.1
3537.067	-0.9
3548.469	-6.9
3559.837	-2.9
3571.169	3.1
3582.466	-1.9
3593.728	-0.9
3604.956	2.1
3616.149	-4.9
3627.307	0.1
3638.432	-5.9
3649.523	-3.9
3660.579	2.1
3671.602	-0.9
3682.591	1.1
3693.547	-6.9
3704.47	-2.9
3715.359	-2.9
3726.216	-6.9
3737.039	-1.9
3747.83	-2.9
3758.589	-3.9
3769.315	0.1
3780.008	-1.9
3790.67	-4.9
3801.299	-1.9
3811.897	-2.9
3822.463	-2.9
3832.998	-1.9
3843.501	-1.9
3853.973	-0.9
3864.414	-2.9
3874.823	-0.9
3885.202	2.1
3895.55	-0.9
3905.868	-0.9
3916.155	-2.9
3926.411	-5.9
3936.638	-3.9
3946.834	-3.9
3957	-2.9
3967.137	-2.9
3977.244	-2.9
3987.321	-0.9
3997.369	-3.9
4007.388	-1.9
4017.377	-1.9
4027.338	2.1
4037.269	-5.9
4047.172	-3.9
4057.046	-6.9
4066.891	-4.9
4076.708	-0.9
4086.497	0.1
4096.257	-4.9
4105.989	8.1
4115.694	1.1
4125.37	0.1
4135.019	-3.9
4142.237	-1.9