Folder: Water/Data/Raman/2018-3-19 - Pesticide

Note: Data/Raman/2018-3-19 - Pesticide/0.5per_RamanShift_01.txt
Data from 0.5per_RamanShift_01.txt Node
Date: Mon Mar 19 11:38:04 IST 2018
User: aro
Spectrometer: QEPB0276
Trigger mode: 0
Integration Time (sec): 5.000000E0
Scans to average: 1
Electric dark correction enabled: true
Nonlinearity correction enabled: false
Boxcar width: 0
XAxis mode: Raman Shifts
Number of Pixels in Spectrum: 1044
>>>>>Begin Spectral Data<<<<<
160.701	-0.5
166.742	2.5
172.777	3.5
178.805	12.5
184.826	16.5
190.841	36.5
196.849	59.5
202.85	73.5
208.845	77.5
214.833	80.5
220.815	76.5
226.789	82.5
232.758	77.5
238.719	78.5
244.674	78.5
250.623	81.5
256.565	80.5
262.5	78.5
268.429	80.5
274.351	79.5
280.267	84.5
286.176	81.5
292.079	85.5
297.975	82.5
303.865	81.5
309.748	84.5
315.625	87.5
321.495	85.5
327.359	87.5
333.217	88.5
339.068	90.5
344.912	90.5
350.751	86.5
356.583	89.5
362.408	86.5
368.227	86.5
374.04	89.5
379.847	90.5
385.647	104.5
391.44	105.5
397.228	105.5
403.009	103.5
408.784	101.5
414.553	109.5
420.315	123.5
426.071	133.5
431.821	113.5
437.565	101.5
443.302	92.5
449.033	95.5
454.758	91.5
460.477	85.5
466.189	92.5
471.896	85.5
477.596	85.5
483.29	85.5
488.978	80.5
494.66	81.5
500.335	84.5
506.005	73.5
511.668	66.5
517.325	62.5
522.977	50.5
528.622	50.5
534.261	53.5
539.894	48.5
545.521	53.5
551.141	47.5
556.756	49.5
562.365	41.5
567.968	44.5
573.565	36.5
579.155	38.5
584.74	42.5
590.319	44.5
595.892	42.5
601.459	42.5
607.02	44.5
612.575	42.5
618.124	41.5
623.667	39.5
629.204	32.5
634.735	36.5
640.261	38.5
645.781	36.5
651.294	49.5
656.802	50.5
662.304	39.5
667.8	39.5
673.29	36.5
678.775	34.5
684.254	29.5
689.726	28.5
695.193	36.5
700.655	35.5
706.11	36.5
711.56	34.5
717.004	36.5
722.442	29.5
727.874	29.5
733.301	28.5
738.722	27.5
744.137	32.5
749.547	33.5
754.951	34.5
760.349	36.5
765.741	32.5
771.128	36.5
776.509	35.5
781.885	35.5
787.254	34.5
792.618	34.5
797.977	38.5
803.33	41.5
808.677	49.5
814.019	52.5
819.355	53.5
824.686	43.5
830.011	36.5
835.33	40.5
840.644	40.5
845.952	43.5
851.255	43.5
856.552	38.5
861.844	35.5
867.13	35.5
872.41	32.5
877.686	32.5
882.955	26.5
888.219	29.5
893.478	25.5
898.731	26.5
903.979	28.5
909.221	34.5
914.458	30.5
919.69	31.5
924.916	24.5
930.136	22.5
935.351	26.5
940.561	23.5
945.766	28.5
950.965	23.5
956.158	28.5
961.347	26.5
966.529	29.5
971.707	27.5
976.879	33.5
982.046	30.5
987.208	27.5
992.364	20.5
997.515	24.5
1002.66	26.5
1007.801	31.5
1012.936	26.5
1018.066	27.5
1023.19	27.5
1028.309	27.5
1033.423	26.5
1038.532	34.5
1043.636	33.5
1048.734	32.5
1053.827	29.5
1058.915	23.5
1063.998	24.5
1069.075	25.5
1074.147	25.5
1079.214	23.5
1084.276	25.5
1089.333	29.5
1094.385	24.5
1099.431	29.5
1104.472	23.5
1109.509	22.5
1114.54	24.5
1119.565	22.5
1124.586	27.5
1129.602	20.5
1134.613	22.5
1139.618	26.5
1144.619	29.5
1149.614	31.5
1154.604	29.5
1159.589	33.5
1164.57	32.5
1169.545	31.5
1174.515	33.5
1179.48	31.5

Note: Data/Raman/2018-3-19 - Pesticide/0.25per_RamanShift_01.txt
Data from 0.25per_RamanShift_01.txt Node
Date: Mon Mar 19 11:39:09 IST 2018
User: aro
Spectrometer: QEPB0276
Trigger mode: 0
Integration Time (sec): 5.000000E0
Scans to average: 1
Electric dark correction enabled: true
Nonlinearity correction enabled: false
Boxcar width: 0
XAxis mode: Raman Shifts
Number of Pixels in Spectrum: 1044
>>>>>Begin Spectral Data<<<<<
160.701	-2.2
166.742	0.8
172.777	2.8
178.805	12.8
184.826	20.8
190.841	45.8
196.849	72.8
202.85	96.8
208.845	98.8
214.833	96.8
220.815	101.8
226.789	96.8
232.758	100.8
238.719	103.8
244.674	107.8
250.623	105.8
256.565	104.8
262.5	97.8
268.429	106.8
274.351	101.8
280.267	102.8
286.176	100.8
292.079	103.8
297.975	106.8
303.865	105.8
309.748	110.8
315.625	107.8
321.495	104.8
327.359	112.8
333.217	105.8
339.068	107.8
344.912	108.8
350.751	108.8
356.583	107.8
362.408	105.8
368.227	103.8
374.04	107.8
379.847	115.8
385.647	123.8
391.44	122.8
397.228	125.8
403.009	131.8
408.784	135.8
414.553	143.8
420.315	148.8
426.071	157.8
431.821	141.8
437.565	120.8
443.302	112.8
449.033	117.8
454.758	112.8
460.477	111.8
466.189	115.8
471.896	103.8
477.596	108.8
483.29	104.8
488.978	98.8
494.66	99.8
500.335	99.8
506.005	88.8
511.668	86.8
517.325	78.8
522.977	76.8
528.622	75.8
534.261	70.8
539.894	73.8
545.521	68.8
551.141	67.8
556.756	59.8
562.365	60.8
567.968	60.8
573.565	63.8
579.155	53.8
584.74	54.8
590.319	60.8
595.892	60.8
601.459	59.8
607.02	62.8
612.575	55.8
618.124	54.8
623.667	54.8
629.204	51.8
634.735	51.8
640.261	55.8
645.781	57.8
651.294	65.8
656.802	64.8
662.304	54.8
667.8	52.8
673.29	51.8
678.775	52.8
684.254	46.8
689.726	41.8
695.193	48.8
700.655	44.8
706.11	51.8
711.56	47.8
717.004	48.8
722.442	45.8
727.874	47.8
733.301	39.8
738.722	46.8
744.137	43.8
749.547	46.8
754.951	43.8
760.349	48.8
765.741	52.8
771.128	50.8
776.509	50.8
781.885	57.8
787.254	54.8
792.618	50.8
797.977	53.8
803.33	63.8
808.677	73.8
814.019	86.8
819.355	84.8
824.686	72.8
830.011	57.8
835.33	64.8
840.644	70.8
845.952	76.8
851.255	75.8
856.552	66.8
861.844	54.8
867.13	48.8
872.41	47.8
877.686	43.8
882.955	38.8
888.219	44.8
893.478	42.8
898.731	44.8
903.979	41.8
909.221	45.8
914.458	43.8
919.69	40.8
924.916	36.8
930.136	39.8
935.351	38.8
940.561	41.8
945.766	43.8
950.965	43.8
956.158	49.8
961.347	45.8
966.529	45.8
971.707	41.8
976.879	47.8
982.046	49.8
987.208	46.8
992.364	39.8
997.515	46.8
1002.66	54.8
1007.801	52.8
1012.936	41.8
1018.066	41.8
1023.19	39.8
1028.309	38.8
1033.423	42.8
1038.532	53.8
1043.636	50.8
1048.734	50.8
1053.827	49.8
1058.915	41.8
1063.998	39.8
1069.075	34.8
1074.147	31.8
1079.214	33.8
1084.276	35.8
1089.333	40.8
1094.385	38.8
1099.431	42.8
1104.472	40.8
1109.509	40.8
1114.54	35.8
1119.565	35.8
1124.586	37.8
1129.602	36.8
1134.613	32.8
1139.618	35.8
1144.619	44.8
1149.614	49.8
1154.604	60.8
1159.589	68.8
1164.57	65.8
1169.54

File: empty plastic_RamanShift_01.txt
Data from empty plastic_RamanShift_01.txt Node

Date: Mon Mar 19 11:41:24 IST 2018
User: aro
Spectrometer: QEPB0276
Trigger mode: 0
Integration Time (sec): 5.000000E0
Scans to average: 1
Electric dark correction enabled: true
Nonlinearity correction enabled: false
Boxcar width: 0
XAxis mode: Raman Shifts
Number of Pixels in Spectrum: 1044
>>>>>Begin Spectral Data<<<<<
160.701	-1
184.826	20
208.845	58
232.758	64
256.565	70
280.267	69
303.865	71
327.359	78
350.751	80
374.04	80
397.228	94
420.315	121
443.302	83
466.189	81
488.978	77
511.668	58
534.261	43
556.756	36
579.155	31
601.459	30
623.667	36
645.781	32
667.8	28
689.726	22
711.56	22
733.301	19
754.951	26
776.509	27
797.977	30
819.355	49
840.644	41
861.844	26
882.955	18
903.979	22
924.916	20
945.766	25
966.529	27
987.208	24
1007.801	27
1028.309	21
1048.734	26
1069.075	20
1089.333	24
1109.509	21
1129.602	20
1149.614	25
1169.545	29
1189.395	17
1209.165	17
1228.856	19
1248.467	16
1268	12
1287.455	18
1306.832	16
1326.132	26
1345.354	24
1364.501	22
1383.572	14
1402.567	15
1421.487	14
1440.333	23
1459.104	34
1477.802	18
1496.426	13
1514.978	11
1533.457	15
1551.864	6
1570.199	10
1588.464	10
1606.657	8
1624.78	13
1642.834	8
1660.817	10
1678.732	11
1696.577	7
1714.355	9
1732.064	10
1749.705	12
1767.28	4
1784.787	10
1802.228	9
1819.603	5
1836.913	8
1854.156	6
1871.335	9
1888.449	5
1905.499	11
1922.485	3
1939.408	7
1956.267	4
1973.063	3
1989.797	5
2006.469	3
2023.078	7
2039.627	2
2056.114	3
2072.54	6
2088.906	7
2105.211	5
2121.457	4
2137.643	0
2153.77	3
2169.838	1
2185.848	2
2201.799	4
2217.693	0
2233.529	7
2249.307	3
2265.029	2
2280.694	6
2296.302	3
2311.854	-3
2327.351	3
2342.792	-1
2358.178	1
2373.508	0
2388.785	2
2404.007	0
2419.174	6
2434.289	-1
2449.349	1
2464.356	6
2479.311	-5
2494.213	3
2509.062	-2
2523.859	6
2538.605	-2
2553.299	0
2567.941	2
2582.533	-1
2597.073	1
2611.564	5
2626.004	-1
2640.394	0
2654.734	4
2669.025	0
2683.266	0
2697.458	3
2711.602	3
2725.697	-1
2739.744	5
2753.743	-1
2767.695	2
2781.598	0
2795.455	-2
2809.264	1
2823.026	-1
2836.742	7
2850.412	11
2864.035	7
2877.613	19
2891.145	20
2904.631	15
2918.073	13
2931.469	8
2944.821	9
2958.128	11
2971.39	6
2984.609	2
2997.784	4
3010.915	2
3024.002	-3
3037.046	-7
3050.048	-1
3063.006	-2
3075.922	-3
3088.795	2
3101.627	-6
3114.416	-1
3127.163	0
3139.869	-3
3152.533	2
3165.157	-6
3177.739	-2
3190.28	-5
3202.781	-3
3215.241	-2
3227.661	-2
3240.041	-4
3252.382	1
3264.682	-1
3276.943	-2
3289.165	-7
3301.348	-2
3313.492	-1
3325.597	-7
3337.663	0
3349.691	-4
3361.681	-2
3373.633	-1
3385.547	-3
3397.424	1
3409.263	-1
3421.065	1
3432.829	-3
3444.557	-4
3456.247	-5
3467.902	-1
3479.519	-6
3491.101	0
3502.646	1
3514.155	-5
3525.629	-3
3537.067	-8
3548.469	-2
3559.837	-7
3571.169	-2
3582.466	-2
3593.728	-2
3604.956	-3
3616.149	-2
3627.307	-4
3638.432	-4
3649.523	-6
3660.579	-1
3671.602	3
3682.591	-3
3693.547	-2
3704.47	-3
3715.359	0
3726.216	-4
3737.039	1
3747.83	-2
3758.589	-1
3769.315	-3
3780.008	-3
3790.67	0
3801.299	-6
3811.897	-4
3822.463	-4
3832.998	-3
3843.501	1
3853.973	0
3864.414	-6
3874.823	0
3885.202	4
3895.55	-2
3905.868	1
3916.155	-2
3926.411	-1
3936.638	-1
3946.834	-1
3957	-3
3967.137	0
3977.244	-2
3987.321	1
3997.369	-3
4007.388	-3
4017.377	1
4027.338	-4
4037.269	1
4047.172	-2
4057.046	-4
4066.891	-2
4076.708	0
4086.497	-1
4096.257	-6
4105.989	6
4115.694	-2
4125.37	-6
4135.019	-3
4142.237	-5